Acc_X,run_ID,Status,time_ms
-0.0192660318661863,2,1,0
-0.0301782589738584,2,1,1
-0.0352858759087271,2,1,2
-0.0013463011121629,2,1,3
-0.0150754544653537,2,1,4
-0.0341309184473935,2,1,5
0.0037797586592569,2,1,6
0.0447626489029549,2,1,7
-0.0375580487386154,2,1,8
-0.0282147654058736,2,1,9
0.0696560744372804,2,1,10
0.0034501691407727,2,1,11
-0.0274544709015609,2,1,12
-0.0151000825548425,2,1,13
0.0187050404270964,2,1,14
0.0276733835855883,2,1,15
-0.0100491756172556,2,1,16
-0.0095444301270297,2,1,17
0.0218583747659319,2,1,18
0.008580317951784,2,1,19
-0.0013213430438285,2,1,20
0.0009610811033593,2,1,21
-0.0073683485274382,2,1,22
0.0098633545830771,2,1,23
0.0416904178925742,2,1,24
0.0209422192343041,2,1,25
-0.0410398523105453,2,1,26
0.0218138762549471,2,1,27
0.0429333617720707,2,1,28
-0.027258077985974,2,1,29
-0.0084282991799004,2,1,30
0.0093520610968114,2,1,31
-0.0251714156455903,2,1,32
-0.0116681438167603,2,1,33
-0.0037162269813656,2,1,34
-0.0269968518739742,2,1,35
-0.0292941573342401,2,1,36
0.0113155401565483,2,1,37
-0.0230478546957171,2,1,38
-0.0644149798401221,2,1,39
0.007819254248357,2,1,40
0.0068051235097159,2,1,41
-0.0273670545870692,2,1,42
-0.0261012559056166,2,1,43
-0.0077450474809728,2,1,44
0.0026967843619641,2,1,45
0.0042978255536477,2,1,46
0.0029174677045063,2,1,47
-0.0021803345404864,2,1,48
-0.006462984020298,2,1,49
0.0212676714433806,2,1,50
0.0047617123167699,2,1,51
0.0228183690290365,2,1,52
0.0375708633540845,2,1,53
0.0453060760765936,2,1,54
-0.0112592785322951,2,1,55
0.0493530738512978,2,1,56
0.0503747359230271,2,1,57
-0.0033033040518678,2,1,58
0.0169565519514615,2,1,59
0.0107032112602781,2,1,60
0.0017762773932841,2,1,61
0.0088736520997461,2,1,62
-0.0218884653470261,2,1,63
0.0051783229309795,2,1,64
0.0157538352870314,2,1,65
-0.0085091167194845,2,1,66
-0.0298061983985261,2,1,67
-0.00461448814873,2,1,68
0.0017691631723224,2,1,69
-0.0221421419906278,2,1,70
-0.0332035257626558,2,1,71
-0.0171137746463761,2,1,72
-0.0252218680634771,2,1,73
-0.0073319722148722,2,1,74
-0.0001402084283736,2,1,75
-0.0021220279809962,2,1,76
-0.0210991154936414,2,1,77
-0.0017889174916625,2,1,78
0.0296587493675058,2,1,79
0.0218620950942014,2,1,80
0.0258472727236781,2,1,81
-0.0175884850775437,1,1,0
-0.0732336047474,1,1,1
0.0482336070444677,1,1,2
0.0612073537060054,1,1,3
-0.0415978778864283,1,1,4
-0.057578641520427,1,1,5
0.0048159612312275,1,1,6
0.0652397313160934,1,1,7
-0.0775992343022385,1,1,8
-0.0383228447695083,1,1,9
0.0967994422334719,1,1,10
-0.011813540255165,1,1,11
0.0508273855330395,1,1,12
0.0013560879062219,1,1,13
-0.023138556091042,1,1,14
0.0402085458612485,1,1,15
0.0070768903789274,1,1,16
-0.0931780183678297,1,1,17
0.0006240675526703,1,1,18
0.0838619521914551,1,1,19
-0.0770519562260995,1,1,20
-0.0840443902141272,1,1,21
0.0677576897224183,1,1,22
0.0049539605378368,1,1,23
-0.0701827925682059,1,1,24
-0.0182734469059007,1,1,25
1.2062844902831098e-05,1,1,26
-0.0198635991424234,1,1,27
-0.0072012394658274,1,1,28
-0.0079730431528976,1,1,29
-0.049655105400578,1,1,30
-0.0373516677592234,1,1,31
0.0237315441530366,1,1,32
-0.0151647416522809,1,1,33
-0.0712627720806114,1,1,34
-0.0141646072235972,1,1,35
0.0632652762517085,1,1,36
0.0006313341102348,1,1,37
-0.0569589807794769,1,1,38
0.0482842444425149,1,1,39
0.0326366239414076,1,1,40
-0.008324774798876,1,1,41
0.0199054364634068,1,1,42
0.0221587422214819,1,1,43
0.0207680177141033,1,1,44
0.039955236930893,1,1,45
0.0417083340192095,1,1,46
-0.0221209951890889,1,1,47
-0.0071869674991602,1,1,48
0.0841696297293132,1,1,49
0.0407376357811046,1,1,50
-0.0510644750740477,1,1,51
0.0332234872426444,1,1,52
0.0512152345901967,1,1,53
-0.0271057958315116,1,1,54
-0.0226823928952924,1,1,55
0.012873460775025,1,1,56
0.0103664674921622,1,1,57
-0.008179291310984,1,1,58
-0.0166538475976133,1,1,59
-0.0310184058160169,1,1,60
0.0057579849617672,1,1,61
-0.0055601125144943,1,1,62
-0.0499886076126044,1,1,63
-0.0397501305696133,1,1,64
0.0163190838957353,1,1,65
-0.0136392593943825,1,1,66
-0.0701178940846775,1,1,67
-0.0202006693461166,1,1,68
0.0162935203700287,1,1,69
-0.0262255596026416,1,1,70
-0.0256676210762459,1,1,71
-0.0164183351008481,1,1,72
0.003298039322913,1,1,73
0.0117539504434513,1,1,74
-0.0061073361847038,1,1,75
-0.0056398923111007,1,1,76
0.0476972396858613,1,1,77
0.02688351143528,1,1,78
-0.0242694450311424,1,1,79
0.0251803902397449,1,1,80
0.0260068105545191,1,1,81
0.0234414037544165,1,1,82
0.0189092182243389,1,1,83
0.0008418901806297,1,1,84
0.0457192166298095,1,1,85
0.0208113341486565,1,1,86
-0.0617482481199995,1,1,87
-0.0115457271606821,1,1,88
0.0529909234307032,1,1,89
0.0128445468813698,1,1,90
-0.049716979951735,1,1,91
0.0069572424463896,1,1,92
0.0232388631893042,1,1,93
-0.0241057080998519,1,1,94
-0.0361199283892791,1,1,95
-0.0064697282809389,1,1,96
0.0051710890169727,1,1,97
-0.0228741319476963,1,1,98
-0.0432429971956785,1,1,99
-0.0211787320724592,1,1,100
0.0258400714532291,1,1,101
-0.0036907178615887,1,1,102
-0.0526333064100569,1,1,103
0.006029838880466,1,1,104
-0.0199847506283822,4,1,0
-0.0069140979988923,4,1,1
-0.0405329491212495,4,1,2
-0.0219772546293793,4,1,3
0.0020061391269013,4,1,4
-0.0075162713805671,4,1,5
-0.0584858989773454,4,1,6
-0.0106590515798317,4,1,7
0.0275985889154306,4,1,8
0.0234865349115215,4,1,9
-0.0079555524539515,4,1,10
0.0005773066428644,4,1,11
0.0144147192031959,4,1,12
-0.0016181459614173,4,1,13
0.0164064401731637,4,1,14
0.0195473481904266,4,1,15
-0.0085309799341178,4,1,16
0.0149030665355434,4,1,17
0.0215311940240042,4,1,18
-0.0085499868785457,4,1,19
-0.0124518749974677,4,1,20
0.0324253784697427,4,1,21
0.0035363381039605,4,1,22
0.0054981245904267,4,1,23
0.0056075477922518,4,1,24
-0.0060007859702273,4,1,25
0.0295344579245208,4,1,26
0.0360757662755059,4,1,27
-0.0061285617204259,4,1,28
-0.018879595612917,4,1,29
0.0309439089710288,4,1,30
0.0195353539134289,4,1,31
-0.0212927595842474,4,1,32
-0.0074516666257539,4,1,33
-0.0113009859923077,4,1,34
-0.0066479785728763,4,1,35
-0.0065575813443748,4,1,36
-0.0204961597964205,4,1,37
-0.0218494524786047,4,1,38
0.002957253094838,4,1,39
-0.0055122383818796,4,1,40
-0.0494566471876551,4,1,41
-0.018522783903229,4,1,42
-0.0079894925953028,4,1,43
0.0040583305224888,4,1,44
-0.010677294867434,4,1,45
-0.0375327605824076,4,1,46
0.0385977065969413,4,1,47
0.0534839267280359,4,1,48
-0.043073941780216,4,1,49
-0.0313073642060521,4,1,50
0.0444543344900719,4,1,51
0.0023701981501551,4,1,52
0.0193801097760128,4,1,53
0.0351392867816662,4,1,54
0.0054870687253176,4,1,55
0.0144109859039651,4,1,56
0.0478861332348723,4,1,57
0.0165275172037127,4,1,58
0.00336600189376,4,1,59
0.0227352003390802,4,1,60
0.027508785464926,4,1,61
-0.039359036165536,4,1,62
0.0416731171859138,4,1,63
-0.029480589298789,4,1,64
-0.0183683151162224,4,1,65
0.0343945784809476,4,1,66
-0.0083844053123969,4,1,67
-0.0254055962738777,4,1,68
-0.004899092068028,4,1,69
0.0226478478326425,4,1,70
-0.0505544642760023,4,1,71
0.0187045529739075,4,1,72
-0.0204132328340366,4,1,73
-0.0194211056482836,4,1,74
-0.0685301170085818,4,1,75
-0.039419336367019,4,1,76
0.0300870203299947,4,1,77
-0.0126623202310774,4,1,78
0.0054870041306647,3,1,0
0.0049567507343696,3,1,1
-0.0124101732024842,3,1,2
-0.0165344594518744,3,1,3
0.0190389612205545,3,1,4
0.0416807994016155,3,1,5
-0.0104065260451735,3,1,6
0.003335613479227,3,1,7
0.0159372700093809,3,1,8
0.0195765109911745,3,1,9
0.0245233939436981,3,1,10
-0.0072329602417233,3,1,11
-0.0175416787104119,3,1,12
0.0374433339546178,3,1,13
0.0339398648865051,3,1,14
-0.0133533022189289,3,1,15
0.0075471160557455,3,1,16
0.0259478462767843,3,1,17
0.0044945251483623,3,1,18
-0.0089178018975819,3,1,19
-0.0001883032718126,3,1,20
0.0178107171819417,3,1,21
0.025425104872054,3,1,22
0.0034491104285565,3,1,23
-0.0474797232353013,3,1,24
0.0054641390559723,3,1,25
0.023519828546461,3,1,26
-0.0069480267919678,3,1,27
-0.0512227360520584,3,1,28
-0.0076404235103514,3,1,29
-0.0084328587644675,3,1,30
-0.0025806337188392,3,1,31
0.0039945807286697,3,1,32
-0.0421554930700638,3,1,33
-0.0334124232494883,3,1,34
0.0374020293492869,3,1,35
-0.0214056777715117,3,1,36
-0.0543434569042115,3,1,37
0.0234026550392796,3,1,38
0.0429165440835173,3,1,39
0.0035625846813344,3,1,40
-0.0075272670092955,3,1,41
0.0096148874999763,3,1,42
0.0186293195755012,3,1,43
0.0065624781650057,3,1,44
0.0309813894909226,3,1,45
0.025606323228225,3,1,46
0.0153956237947048,3,1,47
0.0432881150983359,3,1,48
0.0563926776646597,3,1,49
0.002569890081792,3,1,50
0.0214101850831099,3,1,51
0.0475708340671353,3,1,52
0.0359886520828596,3,1,53
-0.0354277242355229,3,1,54
0.003471805279112,3,1,55
0.0345792804742821,3,1,56
-0.0033843029154753,3,1,57
-0.0214621992806607,3,1,58
0.0175162742350601,3,1,59
-0.0054745422447459,3,1,60
-0.0184057615912888,3,1,61
0.0257120585239223,3,1,62
-0.0182551813117181,3,1,63
-0.0484340408011627,3,1,64
0.0194635814556344,3,1,65
0.0190728105756995,3,1,66
-0.0763569205193269,3,1,67
-0.0583503199843529,3,1,68
0.0099942315167029,3,1,69
-0.008247941153893,3,1,70
-0.0609407193505561,3,1,71
-0.0284807912456101,3,1,72
-0.001565471234257,3,1,73
-0.0087232393121204,3,1,74
-0.0043085952116289,3,1,75
0.0105770121125731,3,1,76
-0.0202472881230626,3,1,77
-0.0084743222456594,3,1,78
0.0208992109898615,3,1,79
-0.0113084979838725,3,1,80
-0.0443663328023005,3,1,81
0.0240046128037144,3,1,82
0.0553180093578996,3,1,83
-0.0090386406143395,3,1,84
-0.0218205395489467,3,1,85
0.0217427428530906,6,1,0
-0.0070298373924745,6,1,1
-0.0693411949551526,6,1,2
0.0020068586408601,6,1,3
-0.0125336900920474,6,1,4
-0.0577561364213495,6,1,5
0.0136004607938362,6,1,6
0.0526282955974442,6,1,7
-0.0363131483683411,6,1,8
0.0231554855445492,6,1,9
0.0522030822923238,6,1,10
-0.0030566416815752,6,1,11
-0.0074132674444119,6,1,12
0.0734159004601204,6,1,13
0.0355534871368912,6,1,14
-0.0285174904388072,6,1,15
-0.0024966169188216,6,1,16
0.0355425952971175,6,1,17
-0.0214275681721456,6,1,18
0.0024130145451506,6,1,19
0.0358241654502818,6,1,20
0.0214787317054507,6,1,21
-0.0124616738112713,6,1,22
0.05565051825641,6,1,23
-0.0253292472121091,6,1,24
0.0327649404346558,6,1,25
0.0925870586181703,6,1,26
-0.0384675783866947,6,1,27
-0.0659618116818502,6,1,28
0.050748745863545,6,1,29
0.0100781801069401,6,1,30
-0.0663339866466671,6,1,31
-0.00551904390442,6,1,32
0.0251109391481502,6,1,33
-0.0512143558949148,6,1,34
-0.0451590221964998,6,1,35
0.0282309026544727,6,1,36
-0.034494269016261,6,1,37
-0.0624621546839908,6,1,38
0.0444404483186877,6,1,39
0.0158636824200344,6,1,40
-0.0559212743837338,6,1,41
-0.0146468817282383,6,1,42
0.0355234243814918,6,1,43
-0.0384716100855647,6,1,44
-0.0226153522575307,6,1,45
0.0358170782797864,6,1,46
0.0103523871948086,6,1,47
-0.0555681908741854,6,1,48
0.0019054606934597,6,1,49
0.029471142695412,6,1,50
-0.0167440146778268,6,1,51
-0.01649173537945,6,1,52
0.0755210968074488,6,1,53
0.0195395105199362,6,1,54
-0.0231416416918116,6,1,55
0.0724758191032219,6,1,56
0.0355607672825396,6,1,57
-0.0493127500459582,6,1,58
0.0214565393726382,6,1,59
0.0716716842071767,6,1,60
-0.0261026723184185,6,1,61
-0.0425088496360756,6,1,62
0.0476806855495671,6,1,63
-0.0324867000014935,6,1,64
-0.0445271437610184,6,1,65
0.0290916535305078,6,1,66
0.0160851803605075,6,1,67
-0.0553194438095768,6,1,68
0.0044277161363319,6,1,69
0.0166753812487177,6,1,70
-0.07040845558343,6,1,71
-0.0045789966019603,6,1,72
-0.0255399021780172,6,1,73
-0.0339152891607325,6,1,74
-0.0012555674635414,6,1,75
-0.0281086304468671,6,1,76
0.0004692281412255,6,1,77
0.0161377419386683,6,1,78
-0.0074738924203126,6,1,79
-0.0014702768312786,6,1,80
0.0346140528143292,6,1,81
-0.009875624406077,6,1,82
0.0414328313569371,6,1,83
0.0243816568671042,6,1,84
0.0553338774217318,5,1,0
-0.0013537396671225,5,1,1
-0.0463657353571491,5,1,2
0.0415077668915837,5,1,3
0.0420608859627766,5,1,4
-0.0019965021334934,5,1,5
-0.0113757303809904,5,1,6
0.0325085386255723,5,1,7
0.0195170911575319,5,1,8
0.0324634047622947,5,1,9
0.0147357287069789,5,1,10
-0.0053607688929993,5,1,11
0.0194343306062168,5,1,12
0.0335990813287025,5,1,13
0.0154645648210307,5,1,14
-0.0083757454607554,5,1,15
0.021475710288264,5,1,16
0.0405009609670132,5,1,17
0.0285240082224569,5,1,18
-0.0443055820612616,5,1,19
-0.0015116060252781,5,1,20
0.0424026689792861,5,1,21
-0.0243368994155192,5,1,22
-0.0422376832090627,5,1,23
0.0165700537657637,5,1,24
0.0040370740476236,5,1,25
-0.0104883468200077,5,1,26
-0.0063985002854178,5,1,27
-0.0316823206343568,5,1,28
-0.0238442123450739,5,1,29
0.0070068486432245,5,1,30
0.0145287989499919,5,1,31
-0.0568649447317983,5,1,32
-0.025434551992104,5,1,33
0.0175023668633915,5,1,34
-0.0299268065191041,5,1,35
-0.0325248148031532,5,1,36
0.0066685638060443,5,1,37
0.0198480326771095,5,1,38
0.0205169120749233,5,1,39
-0.0224802231032077,5,1,40
0.0066108158207168,5,1,41
0.0214417861061884,5,1,42
0.0219418554855983,5,1,43
0.0191149783035909,5,1,44
0.0069689608711565,5,1,45
0.0136304213859193,5,1,46
0.0474097461521459,5,1,47
0.0285276766739801,5,1,48
-0.0033988332066112,5,1,49
0.0144342384405361,5,1,50
0.0487533217693879,5,1,51
0.0337193777562185,5,1,52
-0.0232544201101289,5,1,53
0.0054703993386725,5,1,54
0.0230659477719777,5,1,55
0.0115064968306689,5,1,56
0.0010522283441444,5,1,57
-0.0088831744461708,5,1,58
-0.0065639532791707,5,1,59
0.0195396240347319,5,1,60
-0.0219198579408052,5,1,61
-0.0382609551196566,5,1,62
-0.0063757630815851,5,1,63
0.0085971088298974,5,1,64
-0.0273517624684795,5,1,65
-0.0385919292160399,5,1,66
-0.0320256795170048,5,1,67
-0.0059734799554504,5,1,68
0.0059014959162466,5,1,69
-0.0393055466529788,5,1,70
-0.0424636703668795,5,1,71
-0.0015263706432075,5,1,72
0.010585870176386,5,1,73
-0.0438168812837681,5,1,74
-0.0305548157190253,5,1,75
0.0065784550002032,5,1,76
0.0008543210873115,5,1,77
0.0193588388490704,5,1,78
-0.0013235293424884,5,1,79
0.0018993288415519,5,1,80
0.0319787243321915,5,1,81
0.0294411594003697,5,1,82
-0.0089321583846451,5,1,83
0.017825205993867,5,1,84
0.0326592951102733,5,1,85
0.0297047618947445,5,1,86
-0.0090526250843549,5,1,87
-0.0006547052244395,5,1,88
0.0175850933602679,5,1,89
0.0381148141776437,5,1,90
0.0047819496046089,5,1,91
-0.0223593818046715,5,1,92
-0.0001306822385789,5,1,93
0.0149912416413643,5,1,94
-0.0056241443577823,5,1,95
-0.0323085243720345,8,1,0
-0.0452928260805377,8,1,1
-0.0169289948051586,8,1,2
-0.004027119512556,8,1,3
-0.0234726638792448,8,1,4
-0.0073849216063871,8,1,5
-0.0114892977597725,8,1,6
-0.0113099989589641,8,1,7
0.0240422885794641,8,1,8
0.0315679337519868,8,1,9
-0.0213467038653617,8,1,10
0.0005286004898014,8,1,11
0.0430219256202798,8,1,12
-0.0024374083644053,8,1,13
-0.0123621852694749,8,1,14
0.0075504746542362,8,1,15
0.0190012718300395,8,1,16
0.0186060226204627,8,1,17
-0.0039189087586434,8,1,18
0.0176807826023481,8,1,19
0.0206955511353912,8,1,20
0.0094908156011966,8,1,21
0.0077554209334332,8,1,22
-0.0009151551082227,8,1,23
-0.0057764998033207,8,1,24
0.0311239621889255,8,1,25
0.0168747931043364,8,1,26
-0.0142648436291412,8,1,27
-0.0123398942267674,8,1,28
0.0330864697607541,8,1,29
-0.010280302759704,8,1,30
-0.02532745283668,8,1,31
0.0247921817493476,8,1,32
0.0105840782600345,8,1,33
-0.0264658699029944,8,1,34
-0.0074299391542403,8,1,35
-0.0028030688960673,8,1,36
-0.0108808092930763,8,1,37
0.0047038034126199,8,1,38
-0.0113398613561256,8,1,39
-0.0357895181854947,8,1,40
0.0004878476278569,8,1,41
0.0156396778380895,8,1,42
-0.0183768657876842,8,1,43
-0.0283162255213842,8,1,44
-0.0034597944866743,8,1,45
0.0165539402989335,8,1,46
-0.0013923703876943,8,1,47
-0.0194138720639354,8,1,48
0.0037262108860931,8,1,49
0.0204788310247514,8,1,50
-0.0136160733995573,8,1,51
0.0145460916928692,8,1,52
0.0345823787986475,8,1,53
0.0047638765768932,8,1,54
0.0131174663619688,8,1,55
0.0464248821215875,8,1,56
-0.0115790342526643,8,1,57
-0.0173693735386439,8,1,58
0.0456040982846184,8,1,59
0.0407166706486939,8,1,60
0.0117035607193222,8,1,61
-0.0028478002828898,8,1,62
0.0135949180353353,8,1,63
0.0026666896150232,8,1,64
0.0166209502866797,8,1,65
0.0087075028411947,8,1,66
0.0008011912877257,8,1,67
-0.0193166513090773,8,1,68
0.0167328409626558,8,1,69
-0.0221154213549492,8,1,70
-0.0233169320930515,8,1,71
-0.0053251186289967,8,1,72
-0.0211593733640936,8,1,73
-0.0323945187339431,8,1,74
-0.0144516515754838,8,1,75
-0.0095267777461599,8,1,76
-0.0075495131607257,8,1,77
-0.0042279396542006,8,1,78
-0.00440031407332,8,1,79
-0.0064595198450812,8,1,80
-0.0014377487472818,8,1,81
0.0136211005104334,8,1,82
0.01359079020905,8,1,83
-0.0073550218838738,7,1,0
-0.0537996814927309,7,1,1
0.0055059636871608,7,1,2
0.0334666384703429,7,1,3
-0.0184880196324885,7,1,4
-0.0343457377039026,7,1,5
0.0339555156052019,7,1,6
-0.0123571252580551,7,1,7
0.0350262383856533,7,1,8
0.0197401998844363,7,1,9
0.0095730305067703,7,1,10
0.0501224467442802,7,1,11
0.0505437664528996,7,1,12
-0.0104147084304986,7,1,13
-0.000489906641861,7,1,14
0.0604649256448255,7,1,15
0.0076887344320694,7,1,16
-0.0343457625874705,7,1,17
0.0347393741149643,7,1,18
0.016994541295797,7,1,19
-0.0334055789289912,7,1,20
-0.0039112876370537,7,1,21
0.0065915056901375,7,1,22
-0.00919774393889,7,1,23
-0.0079033500938091,7,1,24
0.0046964684520609,7,1,25
-0.0335766237659619,7,1,26
-0.0156680064196792,7,1,27
-0.0031757657854737,7,1,28
-0.0213762925432765,7,1,29
-0.0173914281874568,7,1,30
-0.0212644765180041,7,1,31
0.0044949159338967,7,1,32
-0.0383080497395519,7,1,33
-0.0255479648454388,7,1,34
0.0159051203022138,7,1,35
0.0065994129727578,7,1,36
-0.0113249177157609,7,1,37
-0.0022135025946137,7,1,38
0.0179154063406804,7,1,39
0.0026815834882522,7,1,40
0.0226878340118938,7,1,41
0.0356645643659431,7,1,42
0.0164415768351677,7,1,43
0.000502492665407,7,1,44
0.0543643005318435,7,1,45
0.0435741950297413,7,1,46
-0.0140781601006381,7,1,47
0.0266202836503816,7,1,48
0.0465141955938253,7,1,49
0.0051106149433125,7,1,50
0.0251054026801098,7,1,51
0.0256687865064653,7,1,52
0.0006964862709013,7,1,53
0.0140914785007037,7,1,54
0.0295452161562614,7,1,55
-0.0042357971696851,7,1,56
-0.0163506673384384,7,1,57
0.0212996397452884,7,1,58
0.0137034273920626,7,1,59
-0.0260253092529221,7,1,60
-0.0232341573072005,7,1,61
-0.0002430255312451,7,1,62
-0.0116754100920363,7,1,63
-0.0318271688244935,7,1,64
-0.0168916357042469,7,1,65
-0.0241670930976084,7,1,66
-0.0214659917108165,7,1,67
-0.0222787811726777,7,1,68
-0.0373679656153442,7,1,69
-0.0283610937678301,7,1,70
-0.0126607719157381,7,1,71
0.0005551562184177,7,1,72
-0.0300053499912168,7,1,73
-0.0354646976082648,7,1,74
0.0146364751585259,7,1,75
0.0110169224015069,7,1,76
-0.0144180346055552,7,1,77
-0.0067542167476869,7,1,78
0.0265866915640209,7,1,79
0.0020734060661544,7,1,80
-0.0003406693067572,7,1,81
0.0197099891173244,7,1,82
0.0109681356360944,7,1,83
0.0216205920849628,7,1,84
0.0357839641874534,7,1,85
-0.0014600273482055,7,1,86
-0.0095567147940251,7,1,87
0.0120798456553449,10,1,0
-0.0165425662505765,10,1,1
-0.0627295943159489,10,1,2
-0.0089289789249909,10,1,3
-0.0050118863888939,10,1,4
-0.0393645518561384,10,1,5
0.0103645647075417,10,1,6
-0.0109162966972867,10,1,7
-0.0625609209523759,10,1,8
0.0472175821706109,10,1,9
0.0147042363589855,10,1,10
-0.04772313738025,10,1,11
0.0351724741326749,10,1,12
0.0634987047414035,10,1,13
-0.0145031868519922,10,1,14
-0.0357004215333181,10,1,15
0.036889508916801,10,1,16
0.0015641134027484,10,1,17
-0.0227550556556621,10,1,18
0.0122581733322163,10,1,19
0.0140744931793799,10,1,20
-0.0119385164171166,10,1,21
-0.0085955225041604,10,1,22
0.00852902676441,10,1,23
-0.001702765388512,10,1,24
-0.0065954645107228,10,1,25
0.012855879522488,10,1,26
0.0140784277503644,10,1,27
-0.0265791881450507,10,1,28
-0.0081984585807977,10,1,29
0.0424543929873637,10,1,30
-0.00967958437394,10,1,31
-0.0590648704362944,10,1,32
0.0188644344568317,10,1,33
0.0253332314340714,10,1,34
-0.0286096532996497,10,1,35
0.00898701267389,10,1,36
0.020401721305373,10,1,37
-0.0455551108594829,10,1,38
-0.0282632841813547,10,1,39
0.0327373610110172,10,1,40
0.0027237556908665,10,1,41
-0.0437585416094322,10,1,42
0.0192573030156349,10,1,43
0.0195012933327665,10,1,44
-0.0205868103926126,10,1,45
-0.0175531229636009,10,1,46
0.0435608105911003,10,1,47
0.0324854459122121,10,1,48
-0.0132098985860329,10,1,49
-0.0126721667925984,10,1,50
0.0033579508704243,10,1,51
0.0067773707441105,10,1,52
0.0264513676843183,10,1,53
0.0355157456259455,10,1,54
-0.0018837404174044,10,1,55
0.0177155264749526,10,1,56
0.0572170768732537,10,1,57
0.0013883972569403,10,1,58
-0.0170531327699396,10,1,59
0.0363939758451323,10,1,60
0.0574081356373403,10,1,61
-0.0300177583226511,10,1,62
-0.009701944486449,10,1,63
0.0195853505105254,10,1,64
-0.004850149073795,10,1,65
0.0009343945278409,10,1,66
0.0026325828167784,10,1,67
-0.0195083429848177,10,1,68
-0.0155528875551331,10,1,69
0.0074947046449414,10,1,70
-0.0024586135174134,10,1,71
-0.007741118453163,10,1,72
0.0115861393340932,10,1,73
-0.0292276530363936,10,1,74
-0.0046724938269031,10,1,75
0.0141430331589196,10,1,76
-0.0166791189717753,10,1,77
0.000426741782144,10,1,78
-0.0026494117203119,10,1,79
-0.010381758181546,10,1,80
0.0532171485334724,10,1,81
0.0483085896038334,10,1,82
-0.0181217358598089,9,1,0
-0.0344335035167031,9,1,1
0.0264286595322395,9,1,2
0.0137310150961759,9,1,3
-0.0108740736708229,9,1,4
0.0174751151672737,9,1,5
0.0292332116934771,9,1,6
-0.009648885556402,9,1,7
0.0024112923862753,9,1,8
0.0001403673146013,9,1,9
-0.0201102331872736,9,1,10
0.0462707535535755,9,1,11
0.0199215254901243,9,1,12
-0.0060501066222999,9,1,13
0.0014226053132469,9,1,14
0.0308366084984167,9,1,15
0.0270585728447314,9,1,16
-0.0061950996458718,9,1,17
-0.0146562434551176,9,1,18
-0.0113053560954944,9,1,19
-0.0047599435901454,9,1,20
0.00947941322961,9,1,21
-0.0339296881231985,9,1,22
-0.0235907347349613,9,1,23
0.046446651984619,9,1,24
-0.0134349604849427,9,1,25
-0.058038762846608,9,1,26
-0.0039393851850871,9,1,27
0.0064414631161902,9,1,28
-0.0305175297740299,9,1,29
-0.0325023598821888,9,1,30
0.0102808964049517,9,1,31
-0.0185107831056675,9,1,32
0.0040370084681249,9,1,33
-0.0285332465215773,9,1,34
-0.0110762259497608,9,1,35
0.0334205072733411,9,1,36
0.0194100475445842,9,1,37
-0.0195262101205515,9,1,38
-0.005550310866223,9,1,39
0.0504383884308661,9,1,40
0.0043499405922878,9,1,41
-0.0066264671369865,9,1,42
0.0315198315617333,9,1,43
0.0483050196033197,9,1,44
0.0242872028204416,9,1,45
0.0353555490217928,9,1,46
0.0044419398261097,9,1,47
0.0194138119826823,9,1,48
0.034466159164151,9,1,49
-0.0286475407276112,9,1,50
-0.0215374763618402,9,1,51
0.0398553149365566,9,1,52
-0.0185873114072302,9,1,53
-0.0539130593394046,9,1,54
0.0543695049923749,9,1,55
0.0207537126050444,9,1,56
-0.0223884683928613,9,1,57
0.0284245642124101,9,1,58
-0.0275560958098237,9,1,59
-0.0330556962837219,9,1,60
-0.0004931889124983,9,1,61
-0.0442650229015259,9,1,62
-0.0327005532854442,9,1,63
0.0052887420868168,9,1,64
-0.0314339026205078,9,1,65
-0.055989281063934,9,1,66
-0.0126372782047463,9,1,67
0.0054760067462488,9,1,68
-0.0216787170996631,9,1,69
-0.0393875030551978,9,1,70
0.0014571171782791,9,1,71
0.0423321445729176,9,1,72
0.0083803179121361,9,1,73
-0.0155455968557122,9,1,74
0.0145094063663103,9,1,75
0.0392712432604384,9,1,76
0.0029455513979884,9,1,77
0.042209640959142,9,1,78
0.0124791721063428,9,1,79
0.0011362014189656,9,1,80
0.0435229474678369,9,1,81
0.0233639208675679,9,1,82
-0.0085270577821511,9,1,83
-0.0034586182094342,9,1,84
0.0380649937379579,9,1,85
0.0334129297877488,9,1,86
-0.0209497617711141,9,1,87
-0.0363018283042636,12,1,0
-0.0113555166885933,12,1,1
-0.0135892571316342,12,1,2
-0.0183707197349806,12,1,3
-0.0253589490303628,12,1,4
-0.0194007573507253,12,1,5
-0.0135666792056961,12,1,6
-0.0035966979394081,12,1,7
0.0263401210955683,12,1,8
0.0185887128465219,12,1,9
0.0006656625457008,12,1,10
0.0323100926307458,12,1,11
0.0075971453934531,12,1,12
-0.0279829796523621,12,1,13
-0.0084393411138539,12,1,14
0.0485270132857718,12,1,15
0.0080597071201326,12,1,16
-0.0274300470782466,12,1,17
-0.0126647606013174,12,1,18
0.0290473514517901,12,1,19
-0.0054390076772235,12,1,20
0.0241603359342793,12,1,21
-0.0074991183949227,12,1,22
-0.0040294542954455,12,1,23
0.0198925793937771,12,1,24
0.0012447408592561,12,1,25
-0.0087506736100802,12,1,26
0.0164615071027872,12,1,27
0.0076502057402148,12,1,28
-0.0243248349654407,12,1,29
-0.0114379990389366,12,1,30
0.0237018506567772,12,1,31
-0.0445796053332079,12,1,32
0.0155404955848155,12,1,33
0.0137024188819465,12,1,34
-0.0563900336012725,12,1,35
0.0099883557589605,12,1,36
0.0066651938602434,12,1,37
-0.0264190787186217,12,1,38
-0.0217466776992582,12,1,39
0.0290957675700153,12,1,40
-0.0182272175683631,12,1,41
-0.0465190756999072,12,1,42
0.0315769229484393,12,1,43
0.0106499004250663,12,1,44
-0.03467041428971,12,1,45
0.0012569700681317,12,1,46
0.0286261885036989,12,1,47
-0.0066045010198605,12,1,48
-0.000935847200377,12,1,49
0.0356482196299367,12,1,50
0.0295770200332419,12,1,51
-0.009529397272314,12,1,52
0.0240963828872261,12,1,53
0.0444599349982917,12,1,54
0.0045225813037838,12,1,55
0.0006807026675896,12,1,56
0.0636239158259267,12,1,57
0.0655332586339019,12,1,58
-0.0214152903249411,12,1,59
0.0085218666697662,12,1,60
0.0394822410861921,12,1,61
-0.0110100603923746,12,1,62
7.183982867292371e-05,12,1,63
0.0215290159117002,12,1,64
-0.0352188841153336,12,1,65
-0.0254339485512838,12,1,66
0.0163559305311494,12,1,67
0.000627973525454,12,1,68
-0.0484249334955373,12,1,69
0.0015078228395703,12,1,70
0.0186728352222029,12,1,71
-0.0467421952266049,12,1,72
-0.0255734215836704,12,1,73
0.0165514166294938,12,1,74
-0.0143356349699711,12,1,75
0.0006960030216846,12,1,76
-0.0109802193165772,12,1,77
-0.0075217081495976,12,1,78
0.0012823518057732,12,1,79
-0.0006049933627912,12,1,80
0.0192877731508199,12,1,81
0.0118152440431219,12,1,82
0.0030979049989604,11,1,0
-0.0155214380977538,11,1,1
-0.0073791049669652,11,1,2
0.0106574855440623,11,1,3
0.0409787039605342,11,1,4
-0.004311416272093,11,1,5
-0.0474814859964672,11,1,6
0.0305332473992328,11,1,7
0.0289531407299097,11,1,8
-0.0136267687208314,11,1,9
0.006930798920979,11,1,10
0.0384223479726662,11,1,11
0.0007034698533141,11,1,12
-0.0093336509417633,11,1,13
0.0520606067748289,11,1,14
-0.0001162426307202,11,1,15
-0.0096573506813669,11,1,16
0.0609396419152157,11,1,17
0.0474064273915416,11,1,18
-0.0373019512785437,11,1,19
-0.005551999822632,11,1,20
0.0456589935970514,11,1,21
-0.0131679326302249,11,1,22
-0.0282472284899524,11,1,23
0.0117664335275923,11,1,24
-0.0361962753900991,11,1,25
-0.0164305159866091,11,1,26
0.0121574807456961,11,1,27
-0.016258140107352,11,1,28
-0.0422410098714646,11,1,29
0.0183938773286931,11,1,30
0.0129056036997398,11,1,31
-0.0562174211472824,11,1,32
-0.0040521150225402,11,1,33
0.0476702268757962,11,1,34
-0.0223324343680827,11,1,35
-0.0589543772243984,11,1,36
0.031039456330732,11,1,37
0.0471361861267508,11,1,38
-0.0325803534443363,11,1,39
0.004631465456717,11,1,40
0.0416329592260602,11,1,41
-0.0255431757375798,11,1,42
0.0079469357778083,11,1,43
0.0099770490528864,11,1,44
0.0050037273083805,11,1,45
0.0594281744051948,11,1,46
0.0400390135347521,11,1,47
-0.0295017365629628,11,1,48
0.0416328764249036,11,1,49
0.0730366368532595,11,1,50
-0.0006239088453345,11,1,51
-0.0263289799321287,11,1,52
0.0206644078079957,11,1,53
0.0344605978533542,11,1,54
-0.0138895786402027,11,1,55
0.0194424045924618,11,1,56
-0.029381060725753,11,1,57
-0.0133745361748571,11,1,58
0.0103414655533478,11,1,59
-0.0258361841880951,11,1,60
-0.038248848303749,11,1,61
4.55639731299588e-05,11,1,62
-0.0039692819791537,11,1,63
-0.0787687061804739,11,1,64
-0.0424517608376941,11,1,65
0.0274459152713793,11,1,66
-0.0478120533511263,11,1,67
-0.0049994260535281,11,1,68
-0.031850909398103,11,1,69
-0.0314298529086415,11,1,70
0.0113340270661053,11,1,71
-0.0037890016050111,11,1,72
-0.023381541239947,11,1,73
-0.0111494059019053,11,1,74
0.0216492422569174,11,1,75
-0.0184008236362315,11,1,76
-0.014634121952008,11,1,77
0.0356261503396744,11,1,78
0.0176420878822595,11,1,79
0.0124880481003551,11,1,80
0.0240925311840449,11,1,81
0.0134203426669276,11,1,82
0.0145293143079309,11,1,83
0.0325619229996741,11,1,84
0.0095033225649726,11,1,85
-0.0095103753311408,11,1,86
0.025524733464181,11,1,87
0.0250549533093415,11,1,88
-0.0224081199557292,11,1,89
-0.001514993893105,11,1,90
0.0340242410097977,11,1,91
0.0221758207274032,14,1,0
-0.0365718389898641,14,1,1
-0.04712770656126,14,1,2
0.0103685740625892,14,1,3
0.0283555489792368,14,1,4
-0.0616070466586802,14,1,5
0.0229138397114687,14,1,6
0.0573108760857795,14,1,7
-0.0567267014513556,14,1,8
0.0284438016863818,14,1,9
0.0806094928596395,14,1,10
-0.0541193010762568,14,1,11
-0.0157603515589302,14,1,12
0.0793707915835632,14,1,13
0.0011486081911898,14,1,14
-0.0212446604487713,14,1,15
0.0176950972598059,14,1,16
0.0355974038085647,14,1,17
-0.0312666866122652,14,1,18
-0.000608008558332,14,1,19
0.0405582909242003,14,1,20
-0.0006690136534621,14,1,21
-0.0046919437423073,14,1,22
0.0056303301330442,14,1,23
0.0124248494052728,14,1,24
-0.000699914585708,14,1,25
0.0134298604538039,14,1,26
0.0218906562944294,14,1,27
-0.0276094591166832,14,1,28
-0.0406276051712204,14,1,29
0.0434892558624541,14,1,30
-0.0120915636387884,14,1,31
-0.0604265747585388,14,1,32
0.0044996724196988,14,1,33
0.0163489762829467,14,1,34
-0.0567187481574987,14,1,35
-0.0226060529073317,14,1,36
0.0184269160554438,14,1,37
-0.0346515260192529,14,1,38
-0.0445892992172944,14,1,39
0.0169912244196124,14,1,40
-0.0360898763501855,14,1,41
-0.0525120406560476,14,1,42
0.0404428021524226,14,1,43
-0.0066456586271501,14,1,44
-0.0475275938907745,14,1,45
0.0044917422206059,14,1,46
0.0303400493225049,14,1,47
-0.0105147999924534,14,1,48
0.0063607191499502,14,1,49
0.0243188808105435,14,1,50
0.0282671577035073,14,1,51
-0.0235680892159519,14,1,52
0.0176756567759146,14,1,53
0.0298441638448654,14,1,54
0.0035918311031748,14,1,55
0.0003155314930289,14,1,56
0.0518772589837702,14,1,57
0.0104759363297791,14,1,58
-0.0297129283412293,14,1,59
0.0389090541372316,14,1,60
0.0414736467340633,14,1,61
-0.0226597860041459,14,1,62
0.0273636856449015,14,1,63
0.0556265657174589,14,1,64
-0.0314130067286791,14,1,65
-0.019990626206062,14,1,66
0.0340129986476879,14,1,67
-0.0134761693255249,14,1,68
-0.0495043141509163,14,1,69
0.0140181254014834,14,1,70
-0.0004615611173982,14,1,71
-0.0388121765805775,14,1,72
0.0054918013438213,14,1,73
-0.0074613629686571,14,1,74
-0.0157219476807274,14,1,75
0.0224140356271283,14,1,76
-0.0144529112941257,14,1,77
-0.0409919746183585,14,1,78
0.0249942461271226,14,1,79
0.018437266404848,14,1,80
0.0193218713984318,14,1,81
0.0121297499242256,14,1,82
0.0047728685217194,13,1,0
-0.0096837664323349,13,1,1
-0.0044844719606067,13,1,2
0.019718036123423,13,1,3
-0.00162278488891,13,1,4
-0.0005923791077873,13,1,5
0.0103031304252485,13,1,6
0.004353663779283,13,1,7
0.0174218896104033,13,1,8
0.0113492118464442,13,1,9
-0.0167372320961157,13,1,10
-0.0024538877333207,13,1,11
0.0451431964781032,13,1,12
0.0189525154849376,13,1,13
-0.0134377654473219,13,1,14
0.0129965672598248,13,1,15
0.0223332743185583,13,1,16
0.016344964993872,13,1,17
0.0273825296151593,13,1,18
-0.0115799216894017,13,1,19
-0.0025308109635468,13,1,20
0.0314361065938452,13,1,21
-0.0100568911398808,13,1,22
-0.0342826778872515,13,1,23
0.0005071120835251,13,1,24
0.0013886411259804,13,1,25
-0.0125567444896769,13,1,26
-0.0115223389668616,13,1,27
-0.0310440203314104,13,1,28
-0.0161217310838035,13,1,29
0.0064918373722726,13,1,30
-0.0096146117378529,13,1,31
-0.0385128180171376,13,1,32
-0.0114991719282138,13,1,33
0.0162991851909148,13,1,34
-0.0245713051219702,13,1,35
-0.0287520467708141,13,1,36
-0.0155298128158929,13,1,37
0.0132721874623898,13,1,38
0.0019652070805155,13,1,39
-0.018552522118174,13,1,40
0.0018537295978125,13,1,41
0.0253789889961385,13,1,42
0.0182604607586248,13,1,43
0.0264367463157145,13,1,44
0.0043765190386154,13,1,45
0.004369131566479,13,1,46
0.0493735675556302,13,1,47
0.0262981828843454,13,1,48
-0.0073921389898828,13,1,49
0.0198333170423237,13,1,50
0.0562002055335149,13,1,51
0.01842565979076,13,1,52
-0.0085305190494442,13,1,53
0.010860679198795,13,1,54
0.0153875750803392,13,1,55
0.0108648521512184,13,1,56
0.0081766096358751,13,1,57
-0.0224294782087496,13,1,58
-0.0364512327802947,13,1,59
0.0181532944172085,13,1,60
-0.0048958003917332,13,1,61
-0.0585343153167262,13,1,62
-0.0050651261867634,13,1,63
0.0193988870077144,13,1,64
-0.0374895687605103,13,1,65
-0.0556115577147344,13,1,66
-0.0110417018761592,13,1,67
-0.0223908549302878,13,1,68
-0.0223173197338228,13,1,69
-0.0355822341424914,13,1,70
-0.0469968885708709,13,1,71
-0.0413892530892157,13,1,72
-0.0086220093710664,13,1,73
0.0045226547002338,13,1,74
-0.0485967268767975,13,1,75
-0.0202561502027337,13,1,76
0.0393934715693677,13,1,77
0.0283404160661203,13,1,78
-0.0385895911313971,13,1,79
-0.0025115628349172,13,1,80
0.0407818922396839,13,1,81
0.0142339235390767,13,1,82
0.004376646059818,13,1,83
0.017536939581663,13,1,84
0.0033461017101106,13,1,85
0.0042151696322062,13,1,86
0.032390074134788,13,1,87
0.0201452057070984,13,1,88
-0.0363952564048572,16,1,0
-0.0084560219043518,16,1,1
-0.0099748715392848,16,1,2
-0.0189259453220926,16,1,3
-0.0486965604696332,16,1,4
0.0262948923964774,16,1,5
0.0415926119609244,16,1,6
-0.0074826807141967,16,1,7
-0.0282757587297544,16,1,8
0.0181311150457527,16,1,9
0.0265078981438357,16,1,10
0.0200529723841087,16,1,11
-0.0214260767361975,16,1,12
-0.0109413705426603,16,1,13
0.0185418035011042,16,1,14
0.0389618915650946,16,1,15
0.0007593860689232,16,1,16
-0.0154410165492119,16,1,17
0.0235189211672845,16,1,18
0.0074086139048675,16,1,19
0.0099564270350307,16,1,20
0.0016769700061753,16,1,21
-0.0003300954196556,16,1,22
0.0026811523118118,16,1,23
0.0174817964686508,16,1,24
-0.0102473965579737,16,1,25
-0.0192466295171932,16,1,26
0.0006174792571522,16,1,27
0.033619528782443,16,1,28
0.0151280086865068,16,1,29
-0.0281828024164371,16,1,30
0.0054973303176228,16,1,31
0.0146316869557175,16,1,32
-0.0244480838004576,16,1,33
-0.018119759995772,16,1,34
0.0026324025965628,16,1,35
0.005609624334694,16,1,36
-0.0203965767267301,16,1,37
-0.0255153143552929,16,1,38
-0.0218214070784386,16,1,39
-0.0064118873366507,16,1,40
0.0094754077542146,16,1,41
0.0031991226267306,16,1,42
-0.0713180800677899,16,1,43
-0.0347307079463133,16,1,44
0.0234970009352898,16,1,45
-0.0292981567153539,16,1,46
-0.0264323549968147,16,1,47
0.0052364268184289,16,1,48
0.0289664489308393,16,1,49
0.0174973941880427,16,1,50
-0.0273955037714609,16,1,51
-0.0119487495369284,16,1,52
0.0514133661316458,16,1,53
0.0280372080417619,16,1,54
0.0096131966367679,16,1,55
0.0276755966126617,16,1,56
0.0274665826763577,16,1,57
0.0286603112960002,16,1,58
0.0294666405645347,16,1,59
-0.0231645955561294,16,1,60
-0.0002700430758836,16,1,61
0.0539574012736389,16,1,62
-0.0101355277288654,16,1,63
-0.0592670500879594,16,1,64
0.0076359447888415,16,1,65
0.0256979786306562,16,1,66
-0.0213656700691232,16,1,67
-0.0203063328601978,16,1,68
-0.0043598948553698,16,1,69
-0.0323429107659808,16,1,70
-0.0082250404929462,16,1,71
-0.041170777658827,16,1,72
-0.0134633395133227,16,1,73
0.0100796221142155,16,1,74
-0.0293055185763102,16,1,75
-0.0614456114987077,16,1,76
-0.015429713920689,16,1,77
0.0096881734856572,16,1,78
0.0014164871263443,16,1,79
0.0385478106671905,16,1,80
0.083716971416852,16,1,81
-0.0203437917577006,15,1,0
-0.0169486226095057,15,1,1
0.0206013265849624,15,1,2
0.0131990695550898,15,1,3
0.0031771283307809,15,1,4
-0.0067401223651356,15,1,5
-0.0012592182009655,15,1,6
0.0284588481930805,15,1,7
0.0030501846557521,15,1,8
-0.0083667583322893,15,1,9
0.0056772038902967,15,1,10
0.0170792459947743,15,1,11
0.0200490822503956,15,1,12
-0.0059528945848199,15,1,13
0.0136988832439294,15,1,14
0.0290187850903525,15,1,15
-0.0088295737439192,15,1,16
-0.0094153007760919,15,1,17
0.0136168043711721,15,1,18
0.0076692385140195,15,1,19
-0.0133851187326948,15,1,20
0.0057216821362302,15,1,21
-0.0084788633769326,15,1,22
-0.0068631166611157,15,1,23
-0.0142990689825757,15,1,24
-0.0304026453844874,15,1,25
-0.0160031128683484,15,1,26
-0.0073589423392817,15,1,27
-0.0144632739711972,15,1,28
-0.0246045268369754,15,1,29
-0.0129337594896856,15,1,30
-0.0004195479641459,15,1,31
-0.0053144298267246,15,1,32
-0.0183250575692675,15,1,33
-0.0223958314820884,15,1,34
-0.0174559044562923,15,1,35
-0.0040461473332627,15,1,36
0.0315181369931922,15,1,37
0.0275782625330381,15,1,38
-0.0243658041444956,15,1,39
0.0214295524639381,15,1,40
0.0357644539554877,15,1,41
-0.0044120184209016,15,1,42
-0.0033597005604069,15,1,43
0.0414353436452964,15,1,44
0.0534944441326881,15,1,45
-0.0014755703766723,15,1,46
0.0413756928679338,15,1,47
0.0577630828933876,15,1,48
-0.0060311946501385,15,1,49
0.0056021207444167,15,1,50
0.0467039168638704,15,1,51
-0.0133777450609617,15,1,52
-0.0026064160979903,15,1,53
0.0435919612024966,15,1,54
0.0036274133994308,15,1,55
-0.0324398078468648,15,1,56
0.0185865685964262,15,1,57
0.0156912721909546,15,1,58
-0.0303914844852854,15,1,59
-0.020433149815977,15,1,60
0.002871383650869,15,1,61
-0.0248917032376546,15,1,62
-0.0242983899397673,15,1,63
-0.013321739781747,15,1,64
-0.0203585272903899,15,1,65
-0.037902118386216,15,1,66
-0.0263281787304116,15,1,67
-0.0140356256549979,15,1,68
-0.0444091841419009,15,1,69
-0.0353277542021567,15,1,70
0.0005203341499565,15,1,71
-0.0204668805398946,15,1,72
-0.0193588172372737,15,1,73
-0.0192167923177352,15,1,74
0.0090274577938184,15,1,75
0.0007967622909888,15,1,76
-0.0073895236176747,15,1,77
0.0265686224944714,15,1,78
0.0016286336681124,15,1,79
-0.0204333151668514,15,1,80
0.02284993872793,15,1,81
0.0211460791400286,15,1,82
0.0034902176486848,15,1,83
0.0315408013041218,15,1,84
0.0190153698254965,15,1,85
-0.0113365945879107,15,1,86
0.0126616434286498,15,1,87
0.0360890789181549,15,1,88
0.0045426181846168,15,1,89
0.0070312107546639,15,1,90
0.0126767214738649,15,1,91
-0.0059528355309362,15,1,92
0.0021996015460422,15,1,93
0.0095983311855342,15,1,94
0.0136614597787568,15,1,95
-0.0154373119971803,15,1,96
-0.0153251833309835,15,1,97
-0.0112098366860152,15,1,98
-0.0163326686222423,15,1,99
-0.0461741404135467,18,1,0
0.0022754407169817,18,1,1
-0.0112237295045985,18,1,2
-0.0434071394353999,18,1,3
-0.0261467977793372,18,1,4
0.0093367018005445,18,1,5
0.0288502325791577,18,1,6
-0.0182848175619542,18,1,7
-0.0236830394492315,18,1,8
0.0505145824096103,18,1,9
0.0309731679029625,18,1,10
-0.0245793484877139,18,1,11
0.0368169566934212,18,1,12
0.04271033002682,18,1,13
-0.0099304142855554,18,1,14
0.0047825327725149,18,1,15
0.048790431940443,18,1,16
0.0049753715864585,18,1,17
-0.0107965094008914,18,1,18
0.0315083639439079,18,1,19
-0.0079509396201037,18,1,20
0.0096046282251712,18,1,21
0.0280168698639392,18,1,22
-0.0032424166266866,18,1,23
-0.0008485970016443,18,1,24
0.0288138417760714,18,1,25
0.0138367063753245,18,1,26
-0.0053914355458906,18,1,27
0.0127311408827392,18,1,28
0.0188142401439938,18,1,29
0.0119600822138847,18,1,30
0.0012645416845722,18,1,31
-0.0167763161714011,18,1,32
-0.0072493191573761,18,1,33
0.0048369783933511,18,1,34
-0.0111183475735794,18,1,35
-0.0181471164736751,18,1,36
0.0028807162165012,18,1,37
-0.0401966032251178,18,1,38
-0.0101839557407547,18,1,39
-0.0103024791023305,18,1,40
-0.0211940887245518,18,1,41
-0.0050607073618089,18,1,42
-0.0101406544577412,18,1,43
-0.025172094895531,18,1,44
-0.0231975399898965,18,1,45
0.0236829908123701,18,1,46
0.000457052654618,18,1,47
-0.0050533426880881,18,1,48
0.0168071930548922,18,1,49
-0.0082240328553202,18,1,50
0.0056409040419622,18,1,51
0.0237920334519737,18,1,52
0.0072495516881013,18,1,53
0.0303790367412657,18,1,54
0.0288643563348745,18,1,55
0.0111839967552792,18,1,56
0.0187891991473511,18,1,57
0.0276171333651628,18,1,58
0.0218140773770653,18,1,59
0.0077751567297968,18,1,60
0.0084203972278835,18,1,61
0.0002177384852838,18,1,62
0.0020623532021729,18,1,63
0.0013919527519261,18,1,64
-0.0151215028825808,18,1,65
-0.0147016366384565,18,1,66
-0.0051402047934257,18,1,67
-0.0035567603559985,18,1,68
-0.0231793662166292,18,1,69
-0.0252994410780573,18,1,70
-0.0212122949402329,18,1,71
-0.0212957018056069,18,1,72
-0.0190306260670067,18,1,73
0.001779002388445,18,1,74
-0.0100713713480839,18,1,75
-0.0332876752500342,18,1,76
-0.0223792959310856,18,1,77
-0.0237193653674901,18,1,78
-0.003097112953652,18,1,79
0.0368783344224605,18,1,80
-0.0082565142246493,18,1,81
0.0283790947865743,18,1,82
0.0341717309840913,17,1,0
-0.0066549500846446,17,1,1
-0.0361898737206355,17,1,2
0.0152453343741441,17,1,3
0.0236470325748015,17,1,4
0.006727856080163,17,1,5
-0.0056370432450664,17,1,6
0.0247412844018954,17,1,7
0.0247376885781385,17,1,8
0.0066624391477111,17,1,9
0.0048005118912992,17,1,10
0.0058441085757967,17,1,11
0.0286502453742521,17,1,12
0.0327990504087023,17,1,13
-0.0001990618278428,17,1,14
-0.0072641133896454,17,1,15
0.0222996849777797,17,1,16
0.0406823784717297,17,1,17
0.0028659760549216,17,1,18
-0.0300519142027644,17,1,19
0.0009029872384896,17,1,20
0.0347334456612866,17,1,21
-0.0006770992862154,17,1,22
-0.0181833342505544,17,1,23
0.0138291254188448,17,1,24
-0.0051476343519742,17,1,25
-0.0141324167037472,17,1,26
-0.0036915577253491,17,1,27
-0.0310589362438306,17,1,28
-0.0151688325548689,17,1,29
0.0166692324273025,17,1,30
-0.0301245876675576,17,1,31
-0.0472105346363925,17,1,32
0.0097351445000588,17,1,33
0.0107930812230321,17,1,34
-0.0161616010705629,17,1,35
-0.024132169733756,17,1,36
0.0008081548677063,17,1,37
0.0058297469090451,17,1,38
0.0016700678902208,17,1,39
-0.0006917421205535,17,1,40
0.0099381976359621,17,1,41
0.0257410931671719,17,1,42
0.0318278676496874,17,1,43
0.0079093376932846,17,1,44
0.0037132894996498,17,1,45
0.0367403305383191,17,1,46
0.0322772142169708,17,1,47
0.0292264406737164,17,1,48
0.0107566147209801,17,1,49
0.0197924955950051,17,1,50
0.0337479877486237,17,1,51
0.0166329281373197,17,1,52
0.0077822726783449,17,1,53
0.0139235684806622,17,1,54
-0.0092493259968952,17,1,55
0.0037428779641884,17,1,56
0.0257557143732342,17,1,57
-0.010132986988158,17,1,58
-0.007220206514907,17,1,59
0.0053586956295653,17,1,60
-0.0071912452703692,17,1,61
-0.0372037197285253,17,1,62
0.0107567877471872,17,1,63
0.0124201081110593,17,1,64
-0.068998332029752,17,1,65
-0.0342440097060902,17,1,66
0.0008700516753669,17,1,67
-0.0386530048307405,17,1,68
-0.0502321414664881,17,1,69
-0.0071840752511314,17,1,70
-0.0311243207338686,17,1,71
-0.0202595563079338,17,1,72
-0.0106038544272928,17,1,73
-0.0313932558101552,17,1,74
-0.0121908838743389,17,1,75
0.0102930038141867,17,1,76
-0.0047786611614811,17,1,77
-0.0096475524136506,17,1,78
0.0355590868362322,17,1,79
0.0058987704793917,17,1,80
0.0016699164922896,17,1,81
0.0178723538677929,17,1,82
0.0272592179993888,17,1,83
0.0039022405081122,17,1,84
-0.0018189835814598,17,1,85
0.0372441876112663,17,1,86
0.0278351105029906,17,1,87
0.0049747227381819,17,1,88
0.0359434451392904,17,1,89
0.0130469261107061,17,1,90
-0.0027424041026689,17,1,91
-0.0521207284024767,20,1,0
-0.0161436693953992,20,1,1
0.0158898664554537,20,1,2
-0.0279504943135611,20,1,3
-0.0471243120102082,20,1,4
0.0229716521900751,20,1,5
0.0093866543841329,20,1,6
-0.0150798048472637,20,1,7
0.0010013883148774,20,1,8
0.0238788325448076,20,1,9
0.002951452986033,20,1,10
0.02983181658369,20,1,11
0.0046118183799999,20,1,12
-0.0231569355161163,20,1,13
0.0227321855722801,20,1,14
0.0394242418027127,20,1,15
-0.0261292289247461,20,1,16
-0.008130007511201,20,1,17
0.0274176357855497,20,1,18
0.0023232390456119,20,1,19
0.0047692865116086,20,1,20
0.0215502210265789,20,1,21
0.0090437468995477,20,1,22
-0.0016408270691661,20,1,23
0.0249180597572001,20,1,24
0.0020087868420793,20,1,25
0.007904844140228,20,1,26
0.0340388191621682,20,1,27
-0.0018841101979129,20,1,28
-0.0041015775890149,20,1,29
0.0034729463353335,20,1,30
0.0019587545424779,20,1,31
0.0130329592907522,20,1,32
-0.011022919644025,20,1,33
-0.0344749630484742,20,1,34
-0.0031516484280888,20,1,35
0.0103653796575035,20,1,36
-0.0448348389806682,20,1,37
-0.0239972591460313,20,1,38
0.0139616113116503,20,1,39
-0.0251003382549431,20,1,40
-0.0131937558841117,20,1,41
-0.0121801079234976,20,1,42
-0.0270430989562553,20,1,43
-0.0170474793161988,20,1,44
0.0269037228379726,20,1,45
-0.0090299833080625,20,1,46
-0.0365569107658054,20,1,47
0.0117403332432512,20,1,48
0.0274358496381781,20,1,49
-0.0371065142669594,20,1,50
0.0067833668907678,20,1,51
0.0249178549928446,20,1,52
0.0297464008770451,20,1,53
0.026874834581568,20,1,54
0.0080153067113269,20,1,55
0.0277319519220458,20,1,56
0.0389595625737503,20,1,57
0.0340316585273737,20,1,58
0.0080903449225111,20,1,59
0.0218825257749123,20,1,60
0.0249929751097711,20,1,61
0.0114154962762456,20,1,62
-0.0099873290592274,20,1,63
0.0101256922034806,20,1,64
0.0060119109741616,20,1,65
-0.001930106579426,20,1,66
-0.0019518034863827,20,1,67
0.0024800636038584,20,1,68
-0.0331143102558799,20,1,69
-0.0151653024596508,20,1,70
0.0040263093226958,20,1,71
-0.0265645284628506,20,1,72
-0.0480845572372882,20,1,73
-0.0110941062250409,20,1,74
-0.008179852552677,20,1,75
-0.0470489666524906,20,1,76
-0.0201221664299563,20,1,77
0.0249324015032246,20,1,78
0.0085151338683239,20,1,79
0.0104295387005561,20,1,80
0.0378744106473691,20,1,81
0.0209465800223886,20,1,82
0.0514413584121673,20,1,83
0.0480235078583803,20,1,84
0.0181039941272761,19,1,0
-0.0430209389910032,19,1,1
0.0321032293338682,19,1,2
0.0697369307970122,19,1,3
-0.047856604557127,19,1,4
-0.0611913326492301,19,1,5
0.0547984613097058,19,1,6
0.0593197493100268,19,1,7
-0.0011088845568806,19,1,8
-0.0094124739292639,19,1,9
-0.0012874806598136,19,1,10
0.0158830641582814,19,1,11
0.0382315677340188,19,1,12
0.0021121502076903,19,1,13
-0.0254221733638559,19,1,14
0.0473239507934711,19,1,15
0.0556450271050207,19,1,16
-0.0498988360410109,19,1,17
-0.0110726038442219,19,1,18
0.0321389608403162,19,1,19
0.043281407336257,19,1,20
-0.0290073108472977,19,1,21
-0.0201865199991466,19,1,22
-0.0110297014647617,19,1,23
0.0118619718907973,19,1,24
0.0028481203350753,19,1,25
-0.01695837579087,19,1,26
-0.0201363648409319,19,1,27
-0.0110726243206575,19,1,28
-0.0020732578460089,19,1,29
-0.0318432684949401,19,1,30
-0.0360461942024589,19,1,31
0.0154472015181991,19,1,32
0.0243395577614239,19,1,33
-0.015504614269512,19,1,34
-0.0631340728741067,19,1,35
0.0278178181102729,19,1,36
0.0381172169844436,19,1,37
-0.0010373805911136,19,1,38
-0.0218652279380098,19,1,39
0.0107330166217916,19,1,40
0.0178899019969039,19,1,41
0.0347814892045477,19,1,42
0.0182039358678655,19,1,43
0.0093615972814611,19,1,44
0.0418778009731136,19,1,45
0.0453169184287108,19,1,46
0.0248894069798045,19,1,47
0.0050405306235054,19,1,48
0.0360030924825172,19,1,49
0.0597944169821743,19,1,50
0.0004336528668373,19,1,51
-0.0081016896247865,19,1,52
0.0209183777265751,19,1,53
0.0278821512030276,19,1,54
-3.77877064261933e-05,19,1,55
-0.0140512827533006,19,1,56
0.0013241231291645,19,1,57
0.0154008365608461,19,1,58
-0.0065372710061919,19,1,59
-0.016554505647463,19,1,60
-0.0049837315557289,19,1,61
-0.00292304050199,19,1,62
0.0008626005893517,19,1,63
-0.0250004988965315,19,1,64
-0.0510702022550236,19,1,65
-0.0291714013927218,19,1,66
0.0008862031783378,19,1,67
-0.0297575203385294,19,1,68
-0.0379570750274915,19,1,69
-0.0220386680576162,19,1,70
-0.0255039319664702,19,1,71
-0.0225647850029189,19,1,72
-0.0185686474559289,19,1,73
-0.0115227672774576,19,1,74
-0.0118869211874173,19,1,75
0.0027409667686026,19,1,76
-0.0134191937360702,19,1,77
-0.0191649230609692,19,1,78
0.0348676215864369,19,1,79
0.030624624244224,19,1,80
0.0078478662084055,19,1,81
0.0017978603812844,19,1,82
0.0139115380591779,19,1,83
0.0228859600515503,19,1,84
0.0340673593191683,19,1,85
0.0022977899204592,19,1,86
0.0144828998965953,19,1,87
0.0236677934636172,19,1,88
0.0128900844560493,19,1,89
-0.0041160831465238,19,1,90
-0.0253861680594643,22,1,0
0.0044119630777559,22,1,1
-0.0214222722941285,22,1,2
-0.0268615126568331,22,1,3
-0.0124590357746422,22,1,4
0.0044477805810877,22,1,5
0.0129952540537117,22,1,6
-0.0134067971285025,22,1,7
-0.0224381129965715,22,1,8
0.0200423347197036,22,1,9
0.0294941356114637,22,1,10
-0.0404167721040428,22,1,11
0.0007948702755258,22,1,12
0.0488475229077465,22,1,13
-0.0136472018064042,22,1,14
0.0135266826179815,22,1,15
0.0422579013133949,22,1,16
-0.0032758225853635,22,1,17
-0.0055155930622662,22,1,18
0.0199144136526036,22,1,19
0.0150429418714062,22,1,20
-0.0278339217832061,22,1,21
0.0258586666664056,22,1,22
0.0312822881340493,22,1,23
-0.0220183255923218,22,1,24
-0.0401289765668851,22,1,25
0.0071153847643958,22,1,26
0.0031077318345715,22,1,27
-0.0108546500860141,22,1,28
-0.0208258022427596,22,1,29
0.0275661238588094,22,1,30
0.0076077089442161,22,1,31
-0.0349290607582334,22,1,32
-0.0078348526832916,22,1,33
0.0100074434295326,22,1,34
-0.0259616142589572,22,1,35
-0.0008838625882972,22,1,36
0.0081232613310448,22,1,37
-0.0496394103903824,22,1,38
-0.0429204872340366,22,1,39
0.0389329922785204,22,1,40
-0.0403085635907146,22,1,41
-0.0509607404075427,22,1,42
0.0280736209450869,22,1,43
-0.0094631047322282,22,1,44
-0.0479601565850898,22,1,45
-0.0060596906365159,22,1,46
0.0137112121890641,22,1,47
-0.0268181071278366,22,1,48
-0.0011242973923786,22,1,49
0.0290459389067028,22,1,50
-0.0037233664468005,22,1,51
0.0044114502944989,22,1,52
0.0470805854674996,22,1,53
0.0105592576923783,22,1,54
-0.0210424618512897,22,1,55
0.0229342110553261,22,1,56
0.0450767069084405,22,1,57
0.0005640177751997,22,1,58
-0.0010078048063804,22,1,59
0.02828236851197,22,1,60
0.0369293351195859,22,1,61
-0.006147882189403,22,1,62
0.014191140853176,22,1,63
0.0112031999936295,22,1,64
-0.0184380074493657,22,1,65
0.0115393704838106,22,1,66
0.0211988957345938,22,1,67
-0.0339375813104949,22,1,68
-0.028861441706837,22,1,69
0.0107154634761645,22,1,70
-0.011111039208757,22,1,71
-0.0158107025229987,22,1,72
-0.0068264812222466,22,1,73
-0.0300574066475216,22,1,74
-0.0223782712780543,22,1,75
-0.0210022895368278,22,1,76
-0.0059114750355972,22,1,77
0.0001041882918555,22,1,78
-0.0103631463890082,22,1,79
0.0339693403647705,22,1,80
0.0221705494958361,22,1,81
-0.0058270767093243,21,1,0
0.0090674769054887,21,1,1
0.0109708725842461,21,1,2
-0.0118627480527876,21,1,3
0.0060997133679304,21,1,4
0.0400248113476564,21,1,5
-0.0083751570309269,21,1,6
0.0029475114240465,21,1,7
0.0421687981129361,21,1,8
0.0220825793430735,21,1,9
-0.0090034575783984,21,1,10
0.0279454915013992,21,1,11
0.0320656581682049,21,1,12
0.0245342304817235,21,1,13
0.0149626232895558,21,1,14
-0.0117466494657797,21,1,15
0.0059354001894461,21,1,16
0.0330254634022817,21,1,17
-0.0067991342002054,21,1,18
-0.0088911912886149,21,1,19
0.0125751801316539,21,1,20
0.0032041870645976,21,1,21
-0.0008675826812173,21,1,22
0.0030676376613301,21,1,23
-0.0175376499782981,21,1,24
-0.0158021653515883,21,1,25
0.0148827735550281,21,1,26
-0.0396481069587222,21,1,27
-0.0659026360368708,21,1,28
0.0079554414437544,21,1,29
0.0101957792507663,21,1,30
-0.0399204504001266,21,1,31
-0.0269373738116955,21,1,32
-0.0070274730299234,21,1,33
-0.0199139120588141,21,1,34
-0.0005479655923876,21,1,35
-0.0093991311751415,21,1,36
-0.0275370347575829,21,1,37
0.0268016646141725,21,1,38
0.0082358792563201,21,1,39
-0.0049958958133313,21,1,40
0.0244742194572286,21,1,41
0.0252101856085915,21,1,42
0.0200580546147038,21,1,43
0.0039716939448489,21,1,44
0.029025696467031,21,1,45
0.0538792411465425,21,1,46
0.0284457790307954,21,1,47
0.0131869923954576,21,1,48
0.0450403147970562,21,1,49
0.0401212144835356,21,1,50
-0.0077872241509684,21,1,51
0.0050514040160847,21,1,52
0.005355775481551,21,1,53
0.0211307642918642,21,1,54
-0.0227698651303749,21,1,55
-0.0183742683159402,21,1,56
0.0220785777398714,21,1,57
0.0100596856712845,21,1,58
-0.0308173531216177,21,1,59
-0.0176740951932718,21,1,60
2.76843968205403e-07,21,1,61
-0.0218578447110621,21,1,62
-0.0227937705612936,21,1,63
-0.0359691845741605,21,1,64
-0.0359372498897641,21,1,65
-0.0011080305088355,21,1,66
-0.0083469504554611,21,1,67
-0.0598953666219243,21,1,68
-0.0388646587833462,21,1,69
-0.0113307594764382,21,1,70
-0.0120349732729189,21,1,71
-0.0258417224453349,21,1,72
-0.0221222109931357,21,1,73
0.038824831780233,21,1,74
0.0060755735133504,21,1,75
-0.0080431965205358,21,1,76
0.0032844795993745,21,1,77
0.0267295836623877,21,1,78
0.0070032617335164,21,1,79
0.0165107260626198,21,1,80
0.0249857572173185,21,1,81
0.0092594496708958,21,1,82
0.0164827539108152,21,1,83
0.0360933712081865,21,1,84
0.0091152747437894,21,1,85
-0.0303936683024599,21,1,86
0.0628590440909169,21,1,87
0.053208254614001,21,1,88
-0.0278178762997875,21,1,89
-0.0044916840357353,21,1,90
0.0141032748887073,21,1,91
-0.0109511313631137,21,1,92
-0.0066989769083222,21,1,93
-0.0018156175293491,21,1,94
0.0006682016342232,21,1,95
-0.0338904309629802,24,1,0
0.0297724930052976,24,1,1
0.0136473909599022,24,1,2
-0.0413826056497724,24,1,3
-0.0273799934099391,24,1,4
0.0295569721317347,24,1,5
-0.0027588903788279,24,1,6
-0.005151645735068,24,1,7
0.0098177625999202,24,1,8
0.0250243792707615,24,1,9
0.0062699547286206,24,1,10
0.0092029592899883,24,1,11
0.0149287880077496,24,1,12
-0.0118656114524683,24,1,13
0.0084626453602297,24,1,14
0.0265724019795997,24,1,15
-0.0193174959199119,24,1,16
-0.0073585957771867,24,1,17
0.044645073665832,24,1,18
0.0065925044045497,24,1,19
-0.016365809707032,24,1,20
0.0156469009202,24,1,21
0.012049983139484,24,1,22
-0.0014034115103752,24,1,23
0.0237507057503156,24,1,24
0.0137510574681421,24,1,25
-0.0027847522765187,24,1,26
0.0106399274558383,24,1,27
0.0068702345547865,24,1,28
0.0011630446624009,24,1,29
-0.013113756948805,24,1,30
0.0006557983651024,24,1,31
0.0223134270949767,24,1,32
-0.0540818910778987,24,1,33
-0.0584143542007107,24,1,34
0.0326043140938353,24,1,35
-0.0078478135215534,24,1,36
-0.0521924153721262,24,1,37
-0.0174396810207858,24,1,38
0.0175731189500189,24,1,39
-0.0174170232126073,24,1,40
-0.0195580340716699,24,1,41
0.0018882997816882,24,1,42
-0.0240611235328596,24,1,43
-0.0005738296678297,24,1,44
0.0187172696256546,24,1,45
-0.0084404622304097,24,1,46
-0.0392460955675471,24,1,47
0.0135413020866122,24,1,48
0.0521596384974502,24,1,49
-0.0223576720586853,24,1,50
-0.0743177389308035,24,1,51
0.0516080937045344,24,1,52
0.0565408437699502,24,1,53
-0.0084107086316267,24,1,54
0.0012589622814561,24,1,55
0.0534665203208974,24,1,56
0.0555853444592821,24,1,57
-0.0023440875543223,24,1,58
0.0277053522295553,24,1,59
0.0277718053262483,24,1,60
0.0016508478000946,24,1,61
0.0481378537033349,24,1,62
0.0290609619698146,24,1,63
-0.0321939753305073,24,1,64
-0.0001812111706047,24,1,65
0.0314908855180679,24,1,66
-0.0122398873171763,24,1,67
-0.0518188354321349,24,1,68
0.0067145206617445,24,1,69
0.0259136035471014,24,1,70
-0.0219463969131124,24,1,71
-0.0252983826831013,24,1,72
-0.013333487298111,24,1,73
0.0024633886383818,24,1,74
-0.0261057135657643,24,1,75
-0.0264685142250016,24,1,76
0.0285206568386192,24,1,77
0.0106399488689065,24,1,78
-0.0111729404894812,24,1,79
0.0290462897700184,24,1,80
-0.005299385901709,23,1,0
-0.0371681719209549,23,1,1
-0.0383789148782269,23,1,2
0.0175511035338866,23,1,3
0.0400679612414307,23,1,4
-0.0242689704629763,23,1,5
-0.0434083106070169,23,1,6
0.0390087948208404,23,1,7
0.0574114117565611,23,1,8
-0.0101732176289346,23,1,9
-0.0591039768854023,23,1,10
0.0530153510977378,23,1,11
0.0575632030256071,23,1,12
0.0234392351380954,23,1,13
-0.0197026081881404,23,1,14
-0.0135287655908559,23,1,15
0.0570076927825591,23,1,16
0.0172212974693416,23,1,17
-0.0228096656849709,23,1,18
-0.0073219819315496,23,1,19
0.0115365405479184,23,1,20
0.0230470591988647,23,1,21
-0.0192100138530172,23,1,22
-0.0271800131408822,23,1,23
0.0047517316124249,23,1,24
0.0265948456570962,23,1,25
0.0066625589292153,23,1,26
-0.0586111898326652,23,1,27
-0.0382606713535504,23,1,28
0.0327167301119476,23,1,29
-0.0028625235707668,23,1,30
-0.0562076825284787,23,1,31
-0.0452303696280272,23,1,32
0.0186138600742332,23,1,33
0.0026037213215647,23,1,34
-0.039230736974121,23,1,35
-0.0401789798961731,23,1,36
0.0350941923106649,23,1,37
0.005500090624227,23,1,38
-0.0344308716890229,23,1,39
-0.0123511635296576,23,1,40
0.0037815482199792,23,1,41
0.0416605463398333,23,1,42
0.030686877693491,23,1,43
-0.0193507760009289,23,1,44
-0.0412751235828777,23,1,45
0.0778657038092567,23,1,46
0.0492265268707414,23,1,47
-0.022209792707101,23,1,48
-0.001544591213117,23,1,49
0.0485600294916329,23,1,50
0.0285355122249425,23,1,51
0.0217134898779021,23,1,52
-0.0132843904673748,23,1,53
0.010721385830332,23,1,54
0.0425642552225179,23,1,55
-0.00687724469388,23,1,56
-0.0357348480092141,23,1,57
-0.0072475336953875,23,1,58
0.0180955311231298,23,1,59
0.0057368346303985,23,1,60
-0.0217245404128666,23,1,61
-0.0432379554583338,23,1,62
0.0051295660789692,23,1,63
0.0096108364317364,23,1,64
-0.0072031816670997,23,1,65
-0.0547409072311752,23,1,66
-0.0132547011077965,23,1,67
0.0176102574158272,23,1,68
-0.0547038008849693,23,1,69
-0.0413194970242337,23,1,70
-0.0072846186285252,23,1,71
-0.0195799210093931,23,1,72
-0.013417532204511,23,1,73
-0.0212320745561526,23,1,74
-0.0352752660917553,23,1,75
0.0105663785685409,23,1,76
-0.0157028066905552,23,1,77
-0.0045959998971727,23,1,78
0.041579023726135,23,1,79
0.0436528748572539,23,1,80
-0.0161951761884622,23,1,81
-0.0058774790071969,23,1,82
0.0346051886969803,23,1,83
0.0441602710460299,23,1,84
0.002548083215324,23,1,85
0.0027590390728448,23,1,86
0.0137139082957997,23,1,87
0.0284687700518287,23,1,88
0.0366976251208045,23,1,89
0.0042773585478474,23,1,90
-0.0089030674229996,23,1,91
0.0041598172067579,26,1,0
-0.0277163948760094,26,1,1
-0.0568249833709998,26,1,2
-0.0284193071297993,26,1,3
0.0155337863914065,26,1,4
-0.032693789974913,26,1,5
-0.0088359135359318,26,1,6
0.0206589384805424,26,1,7
-0.0113645334272737,26,1,8
0.0243413803710485,26,1,9
0.0458264116911179,26,1,10
-0.0397894940377223,26,1,11
-0.0311973286875494,26,1,12
0.0759673269060873,26,1,13
-0.0237018698580459,26,1,14
-0.0363044389750419,26,1,15
0.0385321784889882,26,1,16
0.0336581465367484,26,1,17
-0.0224342753239166,26,1,18
0.0056340703368435,26,1,19
0.0067921052892328,26,1,20
0.0045568402248766,26,1,21
0.0278206005253143,26,1,22
0.0128214856310405,26,1,23
-0.0231873710626759,26,1,24
0.0215188521272346,26,1,25
0.0197547892623103,26,1,26
-0.0017033577932777,26,1,27
-0.0241467074291673,26,1,28
-0.0251684679819126,26,1,29
0.0392425650466112,26,1,30
0.0087554993406107,26,1,31
-0.0571296512607367,26,1,32
-0.0076846072818049,26,1,33
0.0350548236182809,26,1,34
-0.0383373812862835,26,1,35
-0.0511962389180891,26,1,36
0.0093104739830421,26,1,37
-0.0263378724792454,26,1,38
-0.0129715347464269,26,1,39
0.0152769217988636,26,1,40
-0.0328082177033109,26,1,41
-0.0112582351555117,26,1,42
0.036139369843312,26,1,43
-0.0072692374988332,26,1,44
-0.0493183357395687,26,1,45
0.0100893116747881,26,1,46
0.0476866007053411,26,1,47
-0.0222721911926551,26,1,48
-0.0443002162313268,26,1,49
0.0136594848278556,26,1,50
0.0355397077718008,26,1,51
0.0051635134056126,26,1,52
-0.0038323697716258,26,1,53
0.0213023051909843,26,1,54
0.0146075420209113,26,1,55
0.0140969272108433,26,1,56
0.0256435819545092,26,1,57
0.0023182686647885,26,1,58
0.0001678166869801,26,1,59
0.0581343368159329,26,1,60
0.011902659000926,26,1,61
-0.0481523520735595,26,1,62
-0.0018948645269349,26,1,63
0.0477011199670846,26,1,64
-0.0101324449256015,26,1,65
-0.0402856234753623,26,1,66
0.0237540833022753,26,1,67
-0.0153018325456475,26,1,68
-0.0368259827689522,26,1,69
0.011858558986648,26,1,70
-0.0050522062349451,26,1,71
-0.0488290405013335,26,1,72
0.004519740023385,26,1,73
-0.0060888136461501,26,1,74
-0.0422926656834784,26,1,75
-0.0101990919903123,26,1,76
0.0326726728419231,26,1,77
-0.0002622869900663,26,1,78
-0.0111992092077044,26,1,79
0.0486724019968828,26,1,80
0.0076558690319115,26,1,81
0.0072110201643516,26,1,82
0.0448264526238648,26,1,83
0.0755821704762059,26,1,84
0.0867723006416915,26,1,85
0.0067108598877091,25,1,0
-0.037226821993742,25,1,1
-0.0033396159795555,25,1,2
0.0566267093195187,25,1,3
-0.0150809483953487,25,1,4
-0.0213163999183109,25,1,5
0.047679126442138,25,1,6
0.0137183526255239,25,1,7
-0.0353742879857378,25,1,8
0.0481164106749868,25,1,9
0.0257542273655515,25,1,10
-0.0273231767274932,25,1,11
0.0435504109616149,25,1,12
0.0257544758871984,25,1,13
-0.0353890105833742,25,1,14
-0.0048394868018043,25,1,15
0.0347833267589798,25,1,16
0.0116153424182478,25,1,17
-0.0139441516838447,25,1,18
0.0106152590901712,25,1,19
0.0151739426904788,25,1,20
0.0036230537719175,25,1,21
0.003314829493595,25,1,22
0.00987327307827,25,1,23
-0.0072437440674936,25,1,24
-0.0131252319430668,25,1,25
-0.0141984989946622,25,1,26
0.0006970606728634,25,1,27
-0.0355110879751936,25,1,28
-0.0192794267680668,25,1,29
0.0325183566812656,25,1,30
-0.0345702226343787,25,1,31
-0.0272017265934321,25,1,32
0.0092776192528843,25,1,33
0.0006455089882593,25,1,34
-0.0367636715470832,25,1,35
0.0125487786816136,25,1,36
0.0198728637508018,25,1,37
-0.0252680036660967,25,1,38
0.0295694437493084,25,1,39
0.0218060783384049,25,1,40
5.8836319675019e-06,25,1,41
0.0097846663779281,25,1,42
0.0316729171105628,25,1,43
0.0024199225305011,25,1,44
0.0155448622695791,25,1,45
0.0416723496329557,25,1,46
0.0366504478073583,25,1,47
0.0091078123367727,25,1,48
-0.0041846149891569,25,1,49
0.0336360965296093,25,1,50
0.024739681257924,25,1,51
0.0106520768807005,25,1,52
0.0257393692106532,25,1,53
0.0201367394931994,25,1,54
-0.0023765876672166,25,1,55
-0.0092065168147542,25,1,56
0.0096644092376878,25,1,57
-0.0191616008012222,25,1,58
-0.02321305653347,25,1,59
0.0297320701096177,25,1,60
-0.0236907262418722,25,1,61
-0.0453151464178633,25,1,62
0.0176810096179754,25,1,63
0.000630854169254,25,1,64
-0.0351239812330433,25,1,65
-0.0250507323865759,25,1,66
-0.0038025969796368,25,1,67
-0.0191988591528529,25,1,68
-0.0402563251337901,25,1,69
-0.0139539893418126,25,1,70
-0.0262938515400369,25,1,71
-0.0403001314406672,25,1,72
-0.0271459633268096,25,1,73
-0.0252754892257383,25,1,74
-0.0282714937386343,25,1,75
-0.0093096427768395,25,1,76
0.0006932783555079,25,1,77
-0.0162133204698208,25,1,78
0.0006676380704678,25,1,79
0.0237543883061146,25,1,80
0.0286877850993166,25,1,81
0.0046007707925772,25,1,82
0.0096963985707412,25,1,83
0.0321028061552779,25,1,84
0.0157586675320222,25,1,85
0.0176958225871197,25,1,86
0.0227765583210699,25,1,87
-0.0033618919154644,25,1,88
-0.0072878666746486,25,1,89
0.0232027780128144,25,1,90
0.0167256476082941,25,1,91
-0.0042658829835575,25,1,92
0.023092358530542,25,1,93
0.0127552113488,25,1,94
-0.0123463490655669,25,1,95
-0.0161243438385444,28,1,0
0.0065298946713351,28,1,1
-0.0386117417766994,28,1,2
-0.0355056087236105,28,1,3
-0.0025758701954546,28,1,4
-0.0104842762484093,28,1,5
0.0036510953398617,28,1,6
0.003442922531314,28,1,7
0.0336958022821836,28,1,8
0.0045591498331399,28,1,9
0.0023824439640047,28,1,10
0.0447389497627247,28,1,11
0.0220209671040038,28,1,12
-0.0174874912794163,28,1,13
0.0248807260859575,28,1,14
0.0235733917879279,28,1,15
-0.0216575674870829,28,1,16
-0.0125068445059711,28,1,17
0.0350161009269989,28,1,18
0.0322324081072476,28,1,19
-0.0210367117789573,28,1,20
0.0174450243220181,28,1,21
0.0416794339265802,28,1,22
-0.0255701806434348,28,1,23
-0.0044850925135188,28,1,24
0.0251080234768586,28,1,25
-0.0115592385012065,28,1,26
-0.0052992773853915,28,1,27
0.0335046809646354,28,1,28
-0.0218885292710591,28,1,29
-0.0225479500877489,28,1,30
0.0490271465877358,28,1,31
0.0076272990690943,28,1,32
-0.0529665298368535,28,1,33
0.0196725259605821,28,1,34
0.0262106016514896,28,1,35
-0.0179462106433421,28,1,36
-0.0473539543424762,28,1,37
0.0024049945622767,28,1,38
0.007540779162258,28,1,39
-0.0277442685643036,28,1,40
-0.0252329738226934,28,1,41
0.0001508590088329,28,1,42
-0.0223924852847837,28,1,43
0.004958098804327,28,1,44
0.0153471423830458,28,1,45
-0.0383459519386627,28,1,46
-0.0078172634927444,28,1,47
0.0522687528886224,28,1,48
-0.0025761850616457,28,1,49
-0.0286491821284407,28,1,50
0.0165323019319295,28,1,51
0.0349862176591969,28,1,52
-0.0056204289691582,28,1,53
-0.0045837148034016,28,1,54
0.0150137260188067,28,1,55
-0.0085975390426252,28,1,56
0.0143623815309732,28,1,57
0.0687375496789569,28,1,58
-0.0112942655227582,28,1,59
-0.028733547594361,28,1,60
0.0464358405442649,28,1,61
0.0303919490317406,28,1,62
-0.0343841327723775,28,1,63
-0.0133893687620668,28,1,64
0.0305924930514092,28,1,65
-0.0155220440704138,28,1,66
-0.0435202774267321,28,1,67
0.004980575663504,28,1,68
-0.0133557137550753,28,1,69
-0.0180403345797482,28,1,70
0.0267939364814689,28,1,71
-0.0184536356403033,28,1,72
-0.0504665893934659,28,1,73
-0.005696799559587,28,1,74
0.0224598226222177,28,1,75
-0.0252715389312576,28,1,76
-0.0420389829369329,28,1,77
0.0050030365553079,28,1,78
-0.005507752411059,28,1,79
-0.0003298852783244,28,1,80
0.0185589325743957,28,1,81
0.008354988254607,28,1,82
-0.0083635701104895,27,1,0
-0.0098329110281694,27,1,1
0.0203544214253424,27,1,2
0.0406412268832331,27,1,3
-0.0038409316849908,27,1,4
-0.0059013228385217,27,1,5
0.0174983130801972,27,1,6
0.0530944346316356,27,1,7
-0.0184270275919282,27,1,8
-0.0055077039701065,27,1,9
0.0447013050322575,27,1,10
0.0094005934534759,27,1,11
-0.0175821359560615,27,1,12
-0.0073557549649452,27,1,13
0.0123170738461309,27,1,14
0.0194911676132907,27,1,15
0.0214378166775359,27,1,16
-0.0068433650216583,27,1,17
-0.0120295934225265,27,1,18
0.0292329648809617,27,1,19
0.0325584004494603,27,1,20
-0.0280135367458753,27,1,21
-0.0474590544097837,27,1,22
-0.0005302839751355,27,1,23
0.0329598859155488,27,1,24
-0.0352322511867184,27,1,25
-0.0735254834538527,27,1,26
0.0120939219657725,27,1,27
0.0317781909539336,27,1,28
-0.013468865930763,27,1,29
-0.0723210857548934,27,1,30
0.0089273684242214,27,1,31
0.0335581877071006,27,1,32
-0.0067574190537855,27,1,33
-0.0224077538951138,27,1,34
-0.0193404160451134,27,1,35
0.0045376577603856,27,1,36
0.0338649596922502,27,1,37
0.0054537401415678,27,1,38
-0.0462927777773242,27,1,39
0.0313045018784956,27,1,40
0.0379366073738439,27,1,41
-0.0002800897238582,27,1,42
-0.0202061428851455,27,1,43
0.0295508533555398,27,1,44
0.0681237183549998,27,1,45
0.0304749272939116,27,1,46
-0.0105944438503851,27,1,47
0.0147713884660712,27,1,48
0.0425195002325409,27,1,49
0.0314371424825135,27,1,50
0.0007039566241652,27,1,51
0.0064766180233942,27,1,52
0.0175099916049095,27,1,53
0.0235021283811837,27,1,54
0.0083627981582248,27,1,55
-0.0130751588026112,27,1,56
0.0044730537846378,27,1,57
0.0334674479822643,27,1,58
0.0144989513072762,27,1,59
-0.0592119076353359,27,1,60
-0.0264908378966575,27,1,61
0.040315186100068,27,1,62
-0.0154081410599627,27,1,63
-0.0574583317738087,27,1,64
-0.0164536009359741,27,1,65
-0.0074729453050611,27,1,66
-0.0285018971728406,27,1,67
-0.0225820895042651,27,1,68
-0.0300537998468236,27,1,69
-0.0264944522027515,27,1,70
0.0082568503742489,27,1,71
-0.0273922208487011,27,1,72
-0.0574584407659518,27,1,73
-0.0133703405227852,27,1,74
0.0183925400814815,27,1,75
-0.0084541887329446,27,1,76
-0.0405203585828576,27,1,77
-0.0085600880759679,27,1,78
0.0414515552442494,27,1,79
0.0225248020153472,27,1,80
-0.0124691028935989,27,1,81
0.0035474359909007,27,1,82
0.0343837725682089,27,1,83
0.0135219398076308,27,1,84
0.0213921198386886,27,1,85
0.0060976985841176,27,1,86
0.0062567430084911,27,1,87
0.0362925589177008,27,1,88
0.0229147581367158,27,1,89
-0.0393633473301363,30,1,0
-0.0421583071662064,30,1,1
0.0008579080092215,30,1,2
3.42364120679432e-05,30,1,3
-0.0297207669536963,30,1,4
-0.0260138340424083,30,1,5
0.0094028095695728,30,1,6
0.0203336457091861,30,1,7
-0.0216253059351289,30,1,8
0.0365353795437995,30,1,9
-0.0112946123407561,30,1,10
0.0032501052952635,30,1,11
0.0144019730286769,30,1,12
-0.0101796786014782,30,1,13
0.0139105381484345,30,1,14
0.04128215165096,30,1,15
-0.0293179453312802,30,1,16
-0.0287553261317973,30,1,17
0.0302792728217553,30,1,18
0.0153337024945622,30,1,19
-0.0201215441839808,30,1,20
-0.0046034926213771,30,1,21
0.0073957378377222,30,1,22
-0.0056838211137112,30,1,23
0.0114721046096523,30,1,24
0.0084263206606437,30,1,25
-0.0044271259548002,30,1,26
0.0084109479579889,30,1,27
0.0204908112655415,30,1,28
-0.018387770802411,30,1,29
-0.0091798253600234,30,1,30
0.0103266695597284,30,1,31
0.0015797680266006,30,1,32
-0.0186369953575318,30,1,33
-0.0164492087145244,30,1,34
-0.0107029536240792,30,1,35
0.0107543591232903,30,1,36
-0.0485622608746467,30,1,37
-0.0255713650760587,30,1,38
0.0077467962394021,30,1,39
-0.0172172931701661,30,1,40
-0.006657852094472,30,1,41
0.0084412089697181,30,1,42
-0.0171026299748049,30,1,43
-0.017341803462357,30,1,44
0.0191491940859852,30,1,45
-0.009396193804861,30,1,46
-0.030587023613187,30,1,47
0.0183871905166145,30,1,48
0.0273660731043149,30,1,49
-0.0137448737220882,30,1,50
0.0044723920439841,30,1,51
0.0242832497102209,30,1,52
0.0188681325902728,30,1,53
0.0153564839083215,30,1,54
0.0132649509204511,30,1,55
0.0130141031785576,30,1,56
0.0293097791172157,30,1,57
0.0363862016079497,30,1,58
0.0034916848497284,30,1,59
-0.0056190689904486,30,1,60
0.0134032461719569,30,1,61
0.0154105896367916,30,1,62
0.0066102203569827,30,1,63
-0.0224869662460106,30,1,64
-0.0026227117199581,30,1,65
0.0225212078771197,30,1,66
-0.0127176585421081,30,1,67
-0.0404784622959432,30,1,68
0.0069645768769093,30,1,69
0.0172881453076393,30,1,70
-0.0265635693074922,30,1,71
-0.0176028676745053,30,1,72
-0.0034923596513454,30,1,73
-0.0546464791339472,30,1,74
-0.007584276343094,30,1,75
0.0223103619134869,30,1,76
0.020463409874218,30,1,77
0.0064225929427794,30,1,78
-0.0480775140223769,29,1,0
-0.0161219109660716,29,1,1
0.0483390185971452,29,1,2
0.0108149021997153,29,1,3
-0.0475698676115719,29,1,4
0.0035413950757083,29,1,5
0.0533733465930043,29,1,6
-0.0046876467009801,29,1,7
-0.0045461846526516,29,1,8
0.0354165661296792,29,1,9
-0.0096412000746552,29,1,10
0.0108340206085939,29,1,11
0.0488773040829616,29,1,12
-0.0214337201541055,29,1,13
-0.0211599846681545,29,1,14
0.0518619398412003,29,1,15
0.0154566132289356,29,1,16
-0.0197101396138354,29,1,17
0.0124488298081328,29,1,18
0.0623841955876413,29,1,19
-0.0384746164333031,29,1,20
0.0295168675601472,29,1,21
0.0154947319019171,29,1,22
-0.0156025430430151,29,1,23
-0.0044272204706208,29,1,24
-0.0074653712334509,29,1,25
-0.0185372322857225,29,1,26
-0.014556552074006,29,1,27
0.0104184804544648,29,1,28
-0.0174183952426471,29,1,29
-0.0286016936210693,29,1,30
0.0245174205535814,29,1,31
-0.04154738826692,29,1,32
-0.0374249270159806,29,1,33
0.0452705477501979,29,1,34
0.0149104937108221,29,1,35
-0.0476850506439465,29,1,36
0.0004343566056318,29,1,37
0.0269174046140102,29,1,38
0.0042924450738695,29,1,39
0.0194637614882473,29,1,40
0.0155177259762727,29,1,41
0.0083801080368586,29,1,42
0.0203335275644104,29,1,43
0.0372785128083206,29,1,44
0.0159562247613246,29,1,45
-0.0056878858108294,29,1,46
0.0443164976351786,29,1,47
0.0393630742207568,29,1,48
-0.0041074732070034,29,1,49
0.0004193265228266,29,1,50
0.0468315111397734,29,1,51
0.0243870420357157,29,1,52
-0.0295554956320596,29,1,53
-0.0135875427630469,29,1,54
0.0123493620982628,29,1,55
-0.0165027355335934,29,1,56
-0.0044117650666229,29,1,57
-0.0050269731381014,29,1,58
-0.0231520617606326,29,1,59
-0.010787249477413,29,1,60
0.0311716785379468,29,1,61
-0.0133421702444479,29,1,62
-0.0574155308062132,29,1,63
-0.0100954023677341,29,1,64
0.0193643292218101,29,1,65
-0.0805368523805772,29,1,66
-0.0305786815583543,29,1,67
-0.000626593559317,29,1,68
-0.0355704244918763,29,1,69
-0.0256096964096364,29,1,70
-0.0016649986000581,29,1,71
-0.0045574808437107,29,1,72
-0.0080418462791142,29,1,73
-0.0031229494196585,29,1,74
-0.0055574364060983,29,1,75
-0.0055842116301104,29,1,76
0.0692683706866078,29,1,77
-0.0175300452293941,29,1,78
-0.0266556164917801,29,1,79
0.0613762051468379,29,1,80
0.0263750544310755,29,1,81
-0.0155530927355419,29,1,82
0.0522699649539268,29,1,83
0.0047330781928501,29,1,84
-0.0196717610223473,29,1,85
0.0399814845324906,29,1,86
0.0283327231133632,29,1,87
0.007923318408446,32,1,0
-0.0175480276391636,32,1,1
-0.0406806849077304,32,1,2
-0.0077024869299223,32,1,3
0.0031735315207236,32,1,4
-0.0276204324268216,32,1,5
0.0021815384200102,32,1,6
0.0004853983055169,32,1,7
0.0002508723531064,32,1,8
0.007319379577961,32,1,9
0.0142998879259235,32,1,10
0.0189377138064609,32,1,11
0.0023275396833607,32,1,12
-0.006172069027128,32,1,13
0.0222956253833271,32,1,14
-0.0037337884055035,32,1,15
-0.0157708619582189,32,1,16
0.0283567030854449,32,1,17
0.0252491198369793,32,1,18
-0.0195553750426916,32,1,19
0.0023894230841651,32,1,20
0.030410272119682,32,1,21
-0.0164556039002677,32,1,22
-0.0135636798639868,32,1,23
0.0254875894004227,32,1,24
-0.0030564858825608,32,1,25
-0.000148724805462,32,1,26
0.0305947079463745,32,1,27
-0.0121057743387119,32,1,28
-0.0125863094283706,32,1,29
0.018249782306803,32,1,30
0.0050045026971629,32,1,31
-0.0415919779447629,32,1,32
-0.0075063204248299,32,1,33
-0.0011334316123015,32,1,34
-0.0096446583271541,32,1,35
-0.0025178983290947,32,1,36
-0.0255244726988723,32,1,37
-0.0147636202255418,32,1,38
-0.0135520117822736,32,1,39
-0.0142403814587378,32,1,40
-0.0031027575906192,32,1,41
-0.0015489409277118,32,1,42
0.0153803931963596,32,1,43
-0.0155865012475502,32,1,44
-0.040923461142989,32,1,45
0.0147614686399949,32,1,46
0.0175187561373584,32,1,47
-0.0115326958329365,32,1,48
0.0054579332830849,32,1,49
0.0246682542638369,32,1,50
-0.011625264287728,32,1,51
-0.0207169058795792,32,1,52
0.0317405673870138,32,1,53
0.0344946499142467,32,1,54
-0.001888091516084,32,1,55
0.0244417628723556,32,1,56
0.0293182239609059,32,1,57
-0.0076713136217796,32,1,58
0.0014200775833251,32,1,59
0.0313370516560872,32,1,60
0.0005357012599693,32,1,61
-0.0039107626675995,32,1,62
0.0219996137557224,32,1,63
0.0124886193921266,32,1,64
-0.0301584050457262,32,1,65
0.0028970000808737,32,1,66
-0.0035721128527204,32,1,67
-0.0125020788917885,32,1,68
0.0035890504622869,32,1,69
0.0124886945081505,32,1,70
-0.0086718699887743,32,1,71
-0.0177363194415277,32,1,72
-0.0165557841517036,32,1,73
-0.0245510333549516,32,1,74
-0.0186017163506216,32,1,75
-0.0092253180747469,32,1,76
-0.0005953573516657,32,1,77
-0.0175934480322838,32,1,78
0.0063043758165916,32,1,79
0.0095693905427117,32,1,80
0.0234265087242397,32,1,81
0.0404247871949177,32,1,82
0.0063810821918905,31,1,0
0.0004429575344554,31,1,1
-0.0195244521212954,31,1,2
0.0497665442864351,31,1,3
0.0403785280061966,31,1,4
-0.0215400873656835,31,1,5
0.0016635317981805,31,1,6
0.0493703148493825,31,1,7
0.0214032366445325,31,1,8
-0.0119354218746251,31,1,9
0.0292598835523399,31,1,10
0.0325564346473851,31,1,11
-0.0187786154966937,31,1,12
0.0737570242254633,31,1,13
0.0196649061457243,31,1,14
-0.0925269580886392,31,1,15
0.0626617910510569,31,1,16
0.0854912755915182,31,1,17
-0.0426614911777014,31,1,18
-0.0279322281247106,31,1,19
0.056389107528639,31,1,20
0.0240417400563181,31,1,21
-0.0657672066939168,31,1,22
0.0269643992239354,31,1,23
0.0197809359573153,31,1,24
-0.0358850741149091,31,1,25
-0.0150710745867879,31,1,26
-0.0057408603836104,31,1,27
-0.022562765520384,31,1,28
0.0086968200137798,31,1,29
-0.0025412344925211,31,1,30
-0.0537183523854524,31,1,31
0.0004779367409203,31,1,32
0.038455886874069,31,1,33
-0.0346234131039349,31,1,34
-0.0214474437948681,31,1,35
0.0432862014479342,31,1,36
0.014049675164743,31,1,37
-0.0534451915603026,31,1,38
0.0043582482889897,31,1,39
0.0523242599991784,31,1,40
-0.0160247708368699,31,1,41
-0.0047952141069792,31,1,42
0.0492626980720247,31,1,43
-0.0006466702059209,31,1,44
0.0098116688976616,31,1,45
0.0703151450180989,31,1,46
0.034271353866743,31,1,47
-0.0145058207063915,31,1,48
0.0361788465216057,31,1,49
0.0603005923848512,31,1,50
-0.0155749208011983,31,1,51
-0.0114713006862879,31,1,52
0.0413171884530496,31,1,53
0.0054275486931937,31,1,54
-0.0197323743434623,31,1,55
-0.0167017854150541,31,1,56
0.0144369837211808,31,1,57
-0.0191052996589481,31,1,58
-0.0066329987356584,31,1,59
0.0203725836324051,31,1,60
-0.0375347672506214,31,1,61
-0.0546222214159003,31,1,62
0.0153497957777339,31,1,63
-0.012978732967101,31,1,64
-0.0643597948063386,31,1,65
-0.0206246378888837,31,1,66
0.0059120899905718,31,1,67
-0.0501493010969513,31,1,68
-0.0575682042276066,31,1,69
-0.0122765107291434,31,1,70
-0.0205898715111532,31,1,71
-0.048460938423672,31,1,72
-0.0017182282771394,31,1,73
-0.0245396031406475,31,1,74
-0.0458308952302847,31,1,75
0.0023276648767339,31,1,76
0.0303833554060052,31,1,77
-0.0154632352194345,31,1,78
-0.0146249302947399,31,1,79
0.0333832092030771,31,1,80
0.0072848510676398,31,1,81
-0.0046796600302065,31,1,82
0.0193724612691044,31,1,83
0.0329140166923612,31,1,84
0.0081115880653198,31,1,85
-0.0136406491453695,31,1,86
0.0212183751603709,31,1,87
-0.0270525473723899,34,1,0
-0.0326519246870974,34,1,1
-0.021682617901764,34,1,2
-0.0074891421277339,34,1,3
-0.0250756200632592,34,1,4
-0.0264075898122149,34,1,5
0.0303924208167966,34,1,6
-0.0265680018069932,34,1,7
-0.0525887285217009,34,1,8
0.0553124682428809,34,1,9
-0.0035275947314276,34,1,10
-0.0385670867606337,34,1,11
0.0252298482855224,34,1,12
0.0138413728332857,34,1,13
-0.0146224617125713,34,1,14
0.0045904826976121,34,1,15
0.0238598363823209,34,1,16
-0.0214842926165111,34,1,17
-0.02274392864999,34,1,18
0.0319737276905776,34,1,19
-0.0019399553085311,34,1,20
-0.0106904591905272,34,1,21
0.0085900019588345,34,1,22
0.0034567700214807,34,1,23
-0.0106222864176043,34,1,24
0.0154675932952896,34,1,25
0.0121812239715881,34,1,26
0.0044305744430306,34,1,27
-0.0141297430587095,34,1,28
0.0035216783244422,34,1,29
0.0144903056462544,34,1,30
-0.0076072438432652,34,1,31
-0.0158436359327268,34,1,32
0.0053537628077434,34,1,33
-0.0075846106748858,34,1,34
-0.0125916615273497,34,1,35
0.0120171295962235,34,1,36
0.0124139931116197,34,1,37
-0.0603290710233633,34,1,38
-0.000161072187041,34,1,39
0.0224666758556549,34,1,40
-0.0269915674626689,34,1,41
1.03284347614502e-05,34,1,42
-0.0040542514229703,34,1,43
-0.0335674240991189,34,1,44
-0.0051798690700875,34,1,45
0.0133834474039504,34,1,46
-0.0079395739321253,34,1,47
-0.0045160583859929,34,1,48
0.0303022057471499,34,1,49
0.0074754040789324,34,1,50
-0.0147517394336328,34,1,51
0.0143374692806381,34,1,52
0.036595782211585,34,1,53
0.0224670273023038,34,1,54
0.010864512991852,34,1,55
0.0259397961528771,34,1,56
0.0212915900913401,34,1,57
0.0133338309379722,34,1,58
0.018043520649427,34,1,59
0.0084945334116827,34,1,60
-0.0036265113613998,34,1,61
0.0144712377095783,34,1,62
0.0303523610979897,34,1,63
-0.0084168250256793,34,1,64
-0.0315331055417472,34,1,65
0.0153607613043949,34,1,66
0.0124715015087437,34,1,67
-0.0379527480190904,34,1,68
-0.0139389113984004,34,1,69
0.0114905666237871,34,1,70
-0.0155302917763247,34,1,71
-0.0350672526082436,34,1,72
-0.019541807085258,34,1,73
-0.026064259441149,34,1,74
0.0053381467792414,34,1,75
-0.0064933254268843,34,1,76
-0.0256250973613942,34,1,77
0.0103523983844418,34,1,78
0.0089141823890062,34,1,79
0.0422207273993082,34,1,80
-0.0060235913880508,34,1,81
0.0369506283199416,34,1,82
0.0056053790500262,33,1,0
-0.0136223183122789,33,1,1
0.0300235259515031,33,1,2
-0.0096226116128439,33,1,3
0.0134217824304036,33,1,4
0.0175395908453701,33,1,5
0.0148834282066228,33,1,6
0.0263368353915977,33,1,7
0.0203065862344834,33,1,8
0.0064909039622724,33,1,9
0.0251461883478687,33,1,10
0.016429061937368,33,1,11
0.0184821438443202,33,1,12
0.0248598860635068,33,1,13
0.0064717540213782,33,1,14
0.0143797327003319,33,1,15
-0.0116301225959415,33,1,16
0.0025637046247374,33,1,17
0.0094488364456895,33,1,18
-0.0179387352467185,33,1,19
-0.0178127181702647,33,1,20
0.0271309802136015,33,1,21
-0.0214078451464821,33,1,22
-0.04048305758982,33,1,23
0.0103307961262324,33,1,24
-0.0154731465407378,33,1,25
-0.0209537778210576,33,1,26
-0.0070806574410523,33,1,27
-0.0333383277016865,33,1,28
-0.0254381120901076,33,1,29
0.0063966667802788,33,1,30
-0.0413914148235467,33,1,31
-0.0260335586182992,33,1,32
0.0263827694769895,33,1,33
-0.0110117734569396,33,1,34
-0.0194613726475471,33,1,35
0.0022849214719969,33,1,36
0.0049870884854658,33,1,37
0.0138605227741799,33,1,38
0.0074867675226753,33,1,39
0.0034760019665929,33,1,40
0.0252719594116683,33,1,41
0.0234438112111422,33,1,42
0.0329966916974621,33,1,43
0.0203829165556294,33,1,44
0.0172685941897809,33,1,45
0.0349621852735201,33,1,46
0.0211616797663106,33,1,47
0.0103992110864558,33,1,48
0.0240240010470153,33,1,49
-0.0102458439501885,33,1,50
0.0139484274070581,33,1,51
0.0135742790642594,33,1,52
-0.0135193561401833,33,1,53
-0.0039356576821305,33,1,54
-0.0015240824309003,33,1,55
-0.0110268778557103,33,1,56
-0.026521739704729,33,1,57
-0.0005086003340714,33,1,58
0.0024607307377534,33,1,59
-0.0315749237956858,33,1,60
-0.031460633324512,33,1,61
-0.0076758931012545,33,1,62
-0.0254914812260018,33,1,63
-0.0351856713180593,33,1,64
-0.0244308499412969,33,1,65
-0.001600166739392,33,1,66
-0.0215045411538294,33,1,67
-0.0261023484549481,33,1,68
-0.0170036875876006,33,1,69
0.002651152376972,33,1,70
0.0009188028173711,33,1,71
0.0164060304627865,33,1,72
0.0024907286673054,33,1,73
-0.0155230441640349,33,1,74
0.0215205224803365,33,1,75
0.045495895210802,33,1,76
0.0118110717909977,33,1,77
-0.0147521611696115,33,1,78
0.0380760996951792,33,1,79
0.0131468481870477,33,1,80
0.0102501508205321,33,1,81
0.0036209229712868,33,1,82
0.0103454319294713,33,1,83
0.016837441190055,33,1,84
0.0121548987846351,33,1,85
-0.0117973409820214,33,1,86
0.0193984437538066,33,1,87
0.0172308566226308,33,1,88
-0.0204075728824186,33,1,89
-0.0022649106909951,36,1,0
-0.0342920712455707,36,1,1
-0.0126612101462649,36,1,2
0.0088322625284667,36,1,3
-0.0344417216683202,36,1,4
-0.0275178216296311,36,1,5
0.0275984826636965,36,1,6
0.0114649237325989,36,1,7
0.0128527556411569,36,1,8
-0.0138052456130909,36,1,9
-0.0034061145571398,36,1,10
0.0335458920423072,36,1,11
-0.0239809184046905,36,1,12
-0.0485606445503711,36,1,13
0.0373125631602364,36,1,14
0.007084535013004,36,1,15
-0.0104506721224225,36,1,16
-0.0084893409077639,36,1,17
0.0199301536202019,36,1,18
0.0026116038254461,36,1,19
0.0025774972999751,36,1,20
0.0176066077833985,36,1,21
-0.010304754311744,36,1,22
-0.0016245284185116,36,1,23
0.0246137892366186,36,1,24
0.000149285525555,36,1,25
-0.0172410859321548,36,1,26
0.0326733514781431,36,1,27
0.0031531506890086,36,1,28
-0.0054440472722704,36,1,29
-0.0053019398770175,36,1,30
0.0037242645989661,36,1,31
-0.0048803600314266,36,1,32
0.0066372061781196,36,1,33
-0.0194381291336645,36,1,34
-0.0104361485818299,36,1,35
0.0156664374742006,36,1,36
0.007727680031005,36,1,37
-0.0084327058548611,36,1,38
-0.015286708311402,36,1,39
-0.022435689047807,36,1,40
0.016516826025245,36,1,41
-0.019903197824299,36,1,42
-0.0425087571223116,36,1,43
0.0150883390569848,36,1,44
0.0049609745221388,36,1,45
-0.0235629006277585,36,1,46
-0.0014632725585597,36,1,47
0.0330116322177988,36,1,48
0.0250464741783651,36,1,49
-0.0160974071821537,36,1,50
0.0066859915042435,36,1,51
0.023561682128161,36,1,52
0.0342147708640622,36,1,53
0.0117006557287767,36,1,54
-0.0004331429256473,36,1,55
0.0214038522100886,36,1,56
0.0625625287296432,36,1,57
0.0321884122283203,36,1,58
-0.0423821779439073,36,1,59
0.0365909995043879,36,1,60
0.0514919190081557,36,1,61
-0.0033355030213687,36,1,62
-0.0311273109331524,36,1,63
0.0035698885237277,36,1,64
0.0455599563955256,36,1,65
-0.0204279051709863,36,1,66
-0.0126698975778896,36,1,67
0.0109948494568416,36,1,68
-0.0144021550556951,36,1,69
-0.0489413384675111,36,1,70
0.0024502199712729,36,1,71
-0.0112825598215502,36,1,72
-0.0344198489153197,36,1,73
-0.0365099195801437,36,1,74
0.0130020864492623,36,1,75
-0.010891431346065,36,1,76
0.0275386387847703,36,1,77
-0.0129852153454459,36,1,78
0.0190540160798639,36,1,79
0.0259897891800364,36,1,80
0.0330080352416249,36,1,81
0.0065179838537991,36,1,82
0.0045474031375765,35,1,0
-0.0412018160963304,35,1,1
0.0246211926340556,35,1,2
0.0347932335419664,35,1,3
0.0133291806418942,35,1,4
-0.0009597084567612,35,1,5
0.0061561082570749,35,1,6
0.0145842978858161,35,1,7
0.0385227014992976,35,1,8
0.0235763958363287,35,1,9
-0.0132938941311916,35,1,10
0.0044837412015488,35,1,11
0.0445898684507905,35,1,12
0.0214336985166028,35,1,13
-0.0235409696955665,35,1,14
0.0254484750332399,35,1,15
0.0556793124693429,35,1,16
-0.0094213413681904,35,1,17
-0.0449341282500472,35,1,18
0.0175428117975835,35,1,19
0.0054726750791871,35,1,20
0.0004355446739002,35,1,21
-0.003677997436628,35,1,22
-0.0264276037651882,35,1,23
-0.0323822070961466,35,1,24
0.0284414096381123,35,1,25
0.0085924215792299,35,1,26
-0.0953555754724195,35,1,27
-0.0086540541138302,35,1,28
0.0756406081603173,35,1,29
-0.0204882028476061,35,1,30
-0.1002129066166469,35,1,31
-0.0314088712503866,35,1,32
0.0433724430726752,35,1,33
-0.0194882685963569,35,1,34
-0.0647414900276386,35,1,35
-0.0062114974283668,35,1,36
0.0119571420331512,35,1,37
0.0013677080360628,35,1,38
0.0184337328611188,35,1,39
-0.0282703951758235,35,1,40
0.0015554226714445,35,1,41
0.0697235570651059,35,1,42
0.0346054723632316,35,1,43
-0.0362399297925971,35,1,44
-0.0212894453615394,35,1,45
0.069175569028984,35,1,46
0.0753401204593117,35,1,47
-0.0247591827609849,35,1,48
0.0160242041178659,35,1,49
0.0610063920858552,35,1,50
0.0443349647182369,35,1,51
0.010652145596493,35,1,52
-0.0312251724813575,35,1,53
-0.0024368643927622,35,1,54
0.0495223157023501,35,1,55
0.0233060104302799,35,1,56
-0.0342398983883624,35,1,57
-0.0242516609720254,35,1,58
0.0465150513719738,35,1,59
0.0017133142719886,35,1,60
-0.038359602411331,35,1,61
-0.0252402806820297,35,1,62
0.0060589681308443,35,1,63
0.02450897808867,35,1,64
-0.055377225892927,35,1,65
-0.0783416304178655,35,1,66
0.0004354748588705,35,1,67
0.01746811458043,35,1,68
-0.044411660036154,35,1,69
-0.063530517457921,35,1,70
-0.0318786662660247,35,1,71
0.0045254954770611,35,1,72
-0.0153457260458089,35,1,73
-0.0437076556252026,35,1,74
-0.0153722895437834,35,1,75
0.0129908764572377,35,1,76
0.0253585637668719,35,1,77
-0.0358072448508506,35,1,78
-0.0192557612295274,35,1,79
0.0416654028853026,35,1,80
0.0450075138808969,35,1,81
0.0052915726042382,35,1,82
-0.0184441234055747,35,1,83
0.004495067378632,35,1,84
0.0765131021811281,35,1,85
0.0267039646239873,35,1,86
-0.0137321873551849,35,1,87
0.0185052287206007,35,1,88
0.0430114401638233,35,1,89
0.0166148737468628,35,1,90
-0.0054369114991142,35,1,91
-0.0113915031942343,35,1,92
0.0183363251106074,35,1,93
0.0308920643216095,35,1,94
0.0026828204248088,35,1,95
-0.0292923534459712,35,1,96
-0.0053915873977174,35,1,97
0.0355530010405065,35,1,98
-0.0073540510517541,35,1,99
-0.0122438948350902,38,1,0
-0.0383487413840383,38,1,1
-0.0622516610105413,38,1,2
-0.0042992802785306,38,1,3
0.0158315861353406,38,1,4
-0.0507596441751225,38,1,5
-0.0098688650493359,38,1,6
0.0486970095114311,38,1,7
-0.0222469444342074,38,1,8
0.0207575687716244,38,1,9
0.0508729914303746,38,1,10
-0.0270338901446217,38,1,11
0.0136485850162871,38,1,12
0.0396942005354962,38,1,13
-0.0272025727562317,38,1,14
-0.0093870771806702,38,1,15
0.0425878842149079,38,1,16
-0.0235855916726955,38,1,17
-0.0450988698666721,38,1,18
0.0060351366218682,38,1,19
0.0659017610610029,38,1,20
-0.0231513695974564,38,1,21
-0.0422970897688563,38,1,22
-0.0011597527931267,38,1,23
0.0306258125515781,38,1,24
0.0019206140612376,38,1,25
-0.0161517770822479,38,1,26
0.035793598969332,38,1,27
-0.0063944405486812,38,1,28
-0.0283888894055932,38,1,29
0.0269224858965307,38,1,30
0.0173825196157431,38,1,31
-0.0531640380518199,38,1,32
0.0407016614979296,38,1,33
0.0337348521611058,38,1,34
-0.0691558001162706,38,1,35
0.0186848439049204,38,1,36
0.0727028040258055,38,1,37
-0.0433262318629571,38,1,38
-0.0505979018184487,38,1,39
0.0427856895504919,38,1,40
-0.0031305682398365,38,1,41
-0.0272854760098303,38,1,42
0.0078572856652122,38,1,43
-0.0001896607035378,38,1,44
-0.0277720506194447,38,1,45
0.0305959884348674,38,1,46
0.0229556944422598,38,1,47
-0.0162980343473684,38,1,48
0.0052038099203082,38,1,49
0.0145087226761522,38,1,50
-0.0213056331320524,38,1,51
0.0069345481729519,38,1,52
0.0531347985533193,38,1,53
0.0126434704918618,38,1,54
-0.0052845673184009,38,1,55
0.0312533876026398,38,1,56
0.0306983906457573,38,1,57
-0.0022664181320636,38,1,58
0.029867375709866,38,1,59
0.0128238651795979,38,1,60
-0.0167360275035459,38,1,61
0.0183788081327599,38,1,62
-0.0645501129054226,38,1,63
-0.0253559743068486,38,1,64
0.0342351937257521,38,1,65
-0.0312132393786474,38,1,66
-0.0401173669398455,38,1,67
-0.0060684287961047,38,1,68
0.0067224027284363,38,1,69
-0.0313778417379072,38,1,70
-0.0152473720329129,38,1,71
-0.0150566663530956,38,1,72
-0.0338045980250948,38,1,73
0.0005537849212909,38,1,74
-0.002079342735786,38,1,75
-0.0362607176451634,38,1,76
0.0216992823520615,38,1,77
-0.0005132191679038,38,1,78
-0.0298343975403394,38,1,79
0.0265962026061138,38,1,80
-0.0013652410879861,38,1,81
0.0016342538327999,37,1,0
0.0263532747083566,37,1,1
-0.0246221451882315,37,1,2
-0.0232760664143941,37,1,3
0.0309854451355855,37,1,4
0.0077806273186828,37,1,5
0.0005830685565776,37,1,6
0.0077437814076051,37,1,7
0.039643034629401,37,1,8
0.0188678062837198,37,1,9
-0.0172105045203471,37,1,10
0.0287829345782775,37,1,11
0.0397929523489323,37,1,12
-0.0043285940846885,37,1,13
0.02344386985723,37,1,14
0.0151444105413859,37,1,15
-0.0202470666052661,37,1,16
0.0092475916006912,37,1,17
0.0351578306484419,37,1,18
-0.0090423508208002,37,1,19
-0.0432088961826693,37,1,20
0.0387713624736654,37,1,21
0.0268383155589957,37,1,22
-0.0451502469688655,37,1,23
0.0142655281033563,37,1,24
0.0228458204681925,37,1,25
-0.0500837918809402,37,1,26
-0.0047955993383122,37,1,27
0.0143388779889717,37,1,28
-0.0322606133461029,37,1,29
-0.0232760261865659,37,1,30
0.0162764476372723,37,1,31
-0.0172102631533778,37,1,32
-0.0472596568353342,37,1,33
-0.0008067144171345,37,1,34
0.0097658231021525,37,1,35
-0.0053358740218949,37,1,36
-0.0082037132673756,37,1,37
0.0098903590077773,37,1,38
0.0061964480398712,37,1,39
-0.0147509121757327,37,1,40
0.0187286386174087,37,1,41
0.0427490648924694,37,1,42
-0.0037370026406547,37,1,43
0.0157470638043087,37,1,44
0.04111728964936,37,1,45
0.0101814311396687,37,1,46
0.0013176993174314,37,1,47
0.0476899910551081,37,1,48
0.0408079755871567,37,1,49
-0.009229265305765,37,1,50
0.0206331334355701,37,1,51
0.0387384083270108,37,1,52
-0.0132693865317373,37,1,53
0.0057000686383474,37,1,54
0.0387274873055207,37,1,55
-0.0081780800295427,37,1,56
-0.0102733106983927,37,1,57
0.0167508441984171,37,1,58
0.0013471036362028,37,1,59
-0.033187544311498,37,1,60
-0.0144375554947505,37,1,61
0.007854118001697,37,1,62
-0.0251587292465322,37,1,63
-0.042333211579026,37,1,64
-0.0022590167675855,37,1,65
-0.0106924786207492,37,1,66
-0.0422308898237926,37,1,67
-0.0273050654797351,37,1,68
-0.0162142059463732,37,1,69
-0.0343119688468082,37,1,70
-0.0252539312320851,37,1,71
-0.006692793361566,37,1,72
-0.0207468550372744,37,1,73
-0.0142842186877777,37,1,74
0.0087143562311327,37,1,75
-0.0032297022176406,37,1,76
-0.0192251046225881,37,1,77
0.0057843093745818,37,1,78
0.0178277230542146,37,1,79
0.0086412879403147,37,1,80
0.0186772816291294,37,1,81
0.0122436372631647,37,1,82
0.0091522588746967,37,1,83
0.0117070029200787,37,1,84
0.0286951339572027,37,1,85
0.0247282620472754,37,1,86
-0.0030942251766116,37,1,87
0.0135310884246865,37,1,88
0.0366689818642637,37,1,89
0.0235593790403113,37,1,90
0.0047184118820168,37,1,91
-0.0128554445940215,40,1,0
-0.0346024628271929,40,1,1
-0.0423983349407594,40,1,2
-0.0085436762167872,40,1,3
-0.0312261976280147,40,1,4
-0.0145282976822696,40,1,5
0.0014606360908478,40,1,6
0.0034932939952449,40,1,7
0.0133422055414163,40,1,8
0.0043326733541249,40,1,9
0.010985111118679,40,1,10
0.0356037145512112,40,1,11
0.0504070275328197,40,1,12
-0.0169792727341143,40,1,13
0.008703113433141,40,1,14
0.0345211090941469,40,1,15
0.0070344054276045,40,1,16
-0.0232422730279858,40,1,17
-0.0086488736705517,40,1,18
0.0182340039409732,40,1,19
-6.44843393366287e-06,40,1,20
0.0235892891065266,40,1,21
0.001638741690753,40,1,22
0.0004894817257715,40,1,23
0.0095607587372878,40,1,24
-0.0053856224662861,40,1,25
0.0261159142292409,40,1,26
-0.018994209095877,40,1,27
-0.0246779768224889,40,1,28
0.0361341837869697,40,1,29
0.0383629167501957,40,1,30
-0.0293620143648281,40,1,31
-0.0302914817503319,40,1,32
0.0219204743172994,40,1,33
0.0046064078884208,40,1,34
-0.029158885268996,40,1,35
0.0097183978151919,40,1,36
-0.0052812286954774,40,1,37
-0.0156034089977871,40,1,38
0.00058717737891,40,1,39
0.0065608120784157,40,1,40
-0.0413386972887479,40,1,41
0.0164322080977563,40,1,42
0.0383248247555341,40,1,43
-0.0251743889455056,40,1,44
-0.0672693209184037,40,1,45
0.0664855512602129,40,1,46
0.0507004251356993,40,1,47
-0.0360757945667657,40,1,48
-0.0073671783744784,40,1,49
0.0594365140169422,40,1,50
0.0375964048880328,40,1,51
-0.0165620116454332,40,1,52
0.0296940615754919,40,1,53
0.026747272855241,40,1,54
-0.0007509860841865,40,1,55
0.0644819400621434,40,1,56
0.0328445317674431,40,1,57
-0.0348076628354441,40,1,58
0.0499600616909827,40,1,59
0.0794357183311816,40,1,60
-0.0308881298212034,40,1,61
-0.0180054682698048,40,1,62
0.030529127378916,40,1,63
0.0005462993666918,40,1,64
-0.0380642859501293,40,1,65
0.0076660164514192,40,1,66
0.0208008287043656,40,1,67
0.0004334015955599,40,1,68
0.0015612051520209,40,1,69
-0.028542499885776,40,1,70
-0.0404363783635683,40,1,71
-0.0110546411829098,40,1,72
0.022687669129141,40,1,73
-0.0178024372078572,40,1,74
-0.0324219335712904,40,1,75
-0.0671716035719813,40,1,76
-0.0375419127276289,40,1,77
0.005443929650721,40,1,78
0.0447841517031758,40,1,79
0.034009909130709,40,1,80
-0.0148665305184212,39,1,0
-0.0154079400306441,39,1,1
0.0244316937297654,39,1,2
0.0125450375804889,39,1,3
0.0119362099171702,39,1,4
0.0315290642963681,39,1,5
0.009037822473509,39,1,6
-0.0103895006742999,39,1,7
0.0288410627325847,39,1,8
0.0025084306808314,39,1,9
0.0130112241566051,39,1,10
0.0205823725169534,39,1,11
0.0270028274441723,39,1,12
0.0200597371890304,39,1,13
0.0094325331842921,39,1,14
-0.0083857050316736,39,1,15
0.0077337743688038,39,1,16
0.0110114473977833,39,1,17
0.0025608508412256,39,1,18
0.005583250801913,39,1,19
-0.0074723681691636,39,1,20
-0.0105058346052227,39,1,21
0.0334688685075996,39,1,22
0.0145036839292779,39,1,23
-0.046473587067314,39,1,24
-0.0179001134457793,39,1,25
0.0295592252733002,39,1,26
-0.0129455975675719,39,1,27
-0.0412631928320021,39,1,28
0.0126130090652549,39,1,29
0.0044327806437735,39,1,30
-0.0384365627743134,39,1,31
-0.0125472077392733,39,1,32
0.0171163363580476,39,1,33
-0.044293349039659,39,1,34
0.0006288708302213,39,1,35
0.0279726907193551,39,1,36
-0.0045591963021823,39,1,37
-0.0437631904473645,39,1,38
0.0029292349805126,39,1,39
0.0366040786034263,39,1,40
-0.0144150895351921,39,1,41
0.0054028380711212,39,1,42
0.0395131636333456,39,1,43
-0.0024839345018311,39,1,44
-0.008990979776384,39,1,45
0.032412259563351,39,1,46
0.0287999551548695,39,1,47
-0.007581605970478,39,1,48
0.0248901434741287,39,1,49
0.038483269564923,39,1,50
-0.0099458159380402,39,1,51
-4.417153948182751e-05,39,1,52
0.0566552565280804,39,1,53
-0.0105511295131836,39,1,54
-0.0386245375999097,39,1,55
0.0304236463559832,39,1,56
0.0127259259840849,39,1,57
-0.0240050606516929,39,1,58
-0.0044387852418056,39,1,59
0.0006511979331295,39,1,60
-0.0216705942677197,39,1,61
-0.0139341767814051,39,1,62
-0.0023335468752675,39,1,63
-0.0263620094603066,39,1,64
-0.0369402588547848,39,1,65
0.0167405842761211,39,1,66
-0.010370493507402,39,1,67
-0.0587059833189982,39,1,68
-0.0354293743717092,39,1,69
0.0095378103474516,39,1,70
-0.0153700810185804,39,1,71
-0.0533866813410525,39,1,72
0.0027337597228624,39,1,73
-0.0025066887395023,39,1,74
-0.0240239124968589,39,1,75
-0.0064312425960292,39,1,76
0.0140187522916865,39,1,77
-0.0109645949930499,39,1,78
-0.0132876745505795,39,1,79
0.0552867670248998,39,1,80
0.0005007714761328,39,1,81
-0.0405342487536553,39,1,82
0.0275443437400859,39,1,83
0.0336117037469671,39,1,84
0.0119963280788843,39,1,85
0.0034253107543415,39,1,86
0.007304822100722,39,1,87
0.0155449842393609,39,1,88
0.0164133465449822,39,1,89
0.0263712843736154,39,1,90
0.0220820546181419,39,1,91
-0.0016419958437883,39,1,92
0.0004180835213043,39,1,93
0.0016392547678301,42,1,0
-0.0313880240695689,42,1,1
-0.0549428647150116,42,1,2
-0.0257217819304888,42,1,3
0.0101427351565944,42,1,4
-0.0295360824926944,42,1,5
-0.0282561112461067,42,1,6
0.033615239555457,42,1,7
-0.0080870780517964,42,1,8
-0.0105150723113791,42,1,9
0.060805193084285,42,1,10
-0.016167295309055,42,1,11
-0.0353580083316407,42,1,12
0.0696793777803598,42,1,13
0.002157968170699,42,1,14
-0.0362772218693519,42,1,15
0.0275526707914619,42,1,16
0.0501328528526267,42,1,17
-0.0091977432925184,42,1,18
-0.0164552996039977,42,1,19
0.0248926961140347,42,1,20
-0.0061163940930222,42,1,21
-0.0018491093067093,42,1,22
0.0147939154374407,42,1,23
-0.0062720974117902,42,1,24
-0.0082342604069284,42,1,25
0.0100580601072502,42,1,26
0.0343626301551415,42,1,27
0.0046910837199366,42,1,28
-0.0442282081260396,42,1,29
0.0482290248671037,42,1,30
0.0637239825054359,42,1,31
-0.0523273908727825,42,1,32
-0.0162413715076712,42,1,33
0.0427996293596479,42,1,34
-0.0033963317162754,42,1,35
-0.0382432926037262,42,1,36
0.0256379132590404,42,1,37
-0.0227112086804403,42,1,38
-0.0444534295350523,42,1,39
0.0346446304186092,42,1,40
0.00666905404331,42,1,41
-0.0527758476306258,42,1,42
0.0066943579017043,42,1,43
0.0256416556501911,42,1,44
-0.0243517042654265,42,1,45
-0.0214035489217656,42,1,46
0.0037278212984604,42,1,47
-0.0218443224796051,42,1,48
0.0156128119456578,42,1,49
0.0345925455922584,42,1,50
-0.0088746869584497,42,1,51
0.0066022531860871,42,1,52
0.0476991614532224,42,1,53
0.0032056080149659,42,1,54
-0.0154810191971124,42,1,55
0.040747031677374,42,1,56
0.0322038510723082,42,1,57
-0.0132891981927174,42,1,58
-0.0120940893899707,42,1,59
0.0406589559562554,42,1,60
-0.015248357351486,42,1,61
-0.0113558720062162,42,1,62
0.0297337939891427,42,1,63
-0.0031865538697101,42,1,64
-0.028851044873918,42,1,65
0.0352443646653171,42,1,66
0.0227123114711349,42,1,67
-0.0517941157639211,42,1,68
-0.0212996768956176,42,1,69
0.0295939641378439,42,1,70
-0.0367177639398719,42,1,71
0.0032575936324655,42,1,72
-0.0193441829655599,42,1,73
-0.0238293917730808,42,1,74
-0.0187336845200387,42,1,75
0.0156234218195915,42,1,76
-0.011237956364743,42,1,77
-0.010315672851428,42,1,78
0.0194907796777579,41,1,0
0.0022687187028357,41,1,1
-0.0122934227106876,41,1,2
0.012764301215944,41,1,3
0.0155722629425184,41,1,4
0.0327261856110653,41,1,5
-0.0022126925975059,41,1,6
-0.0158928128975059,41,1,7
0.0092792937203563,41,1,8
0.0695244240395785,41,1,9
0.0097569400294185,41,1,10
-0.0291888392852701,41,1,11
0.0315856914731945,41,1,12
0.0521141907781574,41,1,13
0.0041761678242468,41,1,14
-0.0002499123028492,41,1,15
0.0187564810564452,41,1,16
0.0107867056815641,41,1,17
0.0176828649382369,41,1,18
-0.0142486520838088,41,1,19
-0.030269962232191,41,1,20
0.0047354192070495,41,1,21
0.038696374079301,41,1,22
-0.0190934703036562,41,1,23
-0.0386881502720926,41,1,24
0.0047355514855178,41,1,25
0.0206752565601596,41,1,26
-0.0067749373471899,41,1,27
-0.0421068529547134,41,1,28
-0.0242481739586548,41,1,29
0.014609220985156,41,1,30
-0.0062638189586793,41,1,31
-0.0341662671310513,41,1,32
-0.0261964035705247,41,1,33
-0.004341587667162,41,1,34
-0.0012493419903842,41,1,35
-0.0072786370926333,41,1,36
-0.025262914930169,41,1,37
0.0011986134884588,41,1,38
0.0201125604127598,41,1,39
0.0246528578830011,41,1,40
-0.0410918364030571,41,1,41
-0.0043081486573306,41,1,42
0.0336081516085603,41,1,43
0.0045728704519099,41,1,44
-0.0053526634099653,41,1,45
0.0136240112842371,41,1,46
0.0301820082364609,41,1,47
0.0236235331590831,41,1,48
-0.002352831098564,41,1,49
0.0007428042267824,41,1,50
0.0425261537010806,41,1,51
0.0475478729411519,41,1,52
0.0162640467888152,41,1,53
-0.0143078248570563,41,1,54
0.005587754725098,41,1,55
0.0146091548459219,41,1,56
0.0156716760691461,41,1,57
-0.0301295591741965,41,1,58
-0.0300703202617149,41,1,59
0.0125724526775285,41,1,60
0.0115728025258798,41,1,61
-0.0542833036846563,41,1,62
-0.0162338940741736,41,1,63
0.0027762380018696,41,1,64
-0.0042787276187922,41,1,65
-0.0252295420595718,41,1,66
-0.0332991825125137,41,1,67
-0.0223588525630958,41,1,68
-0.0123518899987712,41,1,69
-0.0097232029229077,41,1,70
-0.0451875407618684,41,1,71
-0.043527602048289,41,1,72
0.0120018002106298,41,1,73
0.0036911249185286,41,1,74
-0.0422541896347251,41,1,75
-0.0142857893919681,41,1,76
0.008109554915238,41,1,77
0.0046431050505242,41,1,78
-0.0003826321608399,41,1,79
0.0047165749728277,41,1,80
0.014808620445107,41,1,81
0.0255494627489284,41,1,82
0.0097386028626583,41,1,83
0.0045136315394283,41,1,84
-0.002397232724911,41,1,85
0.0330746560355852,41,1,86
0.0307707357738304,41,1,87
-0.0032492816396116,41,1,88
-0.0046787525420351,41,1,89
0.0432069198148333,41,1,90
0.0392256642864866,41,1,91
-0.005397109129135,41,1,92
0.0037168697051505,41,1,93
-0.0183503555068912,44,1,0
-0.0181375332816112,44,1,1
-0.0151008172568583,44,1,2
-0.0071527352079571,44,1,3
-0.0161376602751415,44,1,4
-0.0178022907825984,44,1,5
0.0266762336819743,44,1,6
-0.0131886822957851,44,1,7
-0.0382826862375124,44,1,8
0.0713459524371916,44,1,9
0.0454243134059113,44,1,10
-0.0242910120261106,44,1,11
0.0476087785702125,44,1,12
0.0397047390779986,44,1,13
-0.0122773862146889,44,1,14
0.0192572656357404,44,1,15
0.0327422520354593,44,1,16
-0.0199095947057028,44,1,17
0.0018477020949758,44,1,18
0.042595101625143,44,1,19
0.0008170557581075,44,1,20
-0.0259573414861835,44,1,21
0.0347384876075141,44,1,22
0.0302753790657583,44,1,23
-0.0227468911805823,44,1,24
0.0102398466064061,44,1,25
0.0141244125076448,44,1,26
-0.0171516143451368,44,1,27
-0.019232297596151,44,1,28
-0.0051383818774233,44,1,29
0.0096630179058391,44,1,30
-0.0085689954137279,44,1,31
-0.0230926179323339,44,1,32
-0.0072985400906978,44,1,33
-0.0142476146382601,44,1,34
-0.012225444066812,44,1,35
0.009320627796255,44,1,36
0.0012844027893166,44,1,37
-0.0407203324736356,44,1,38
0.0091630612231542,44,1,39
-0.0386984034820245,44,1,40
-0.0172038804231263,44,1,41
0.0076706627157836,44,1,42
-0.0187911992932626,44,1,43
-0.0053288010495842,44,1,44
0.0077324643940395,44,1,45
0.0048097120051386,44,1,46
0.0077400631929819,44,1,47
0.0316611582197023,44,1,48
-0.0022267500325537,44,1,49
0.0046925505543101,44,1,50
0.0177065987641355,44,1,51
0.0397417612823729,44,1,52
0.0053318056554929,44,1,53
-0.0144091092368379,44,1,54
0.0186622613320313,44,1,55
0.0357125455882712,44,1,56
-0.0007704250770849,44,1,57
-0.0030866361366722,44,1,58
0.0097069679110655,44,1,59
0.0066744330605592,44,1,60
-0.0172838577045242,44,1,61
0.0076709288012332,44,1,62
-0.0050611627915633,44,1,63
-0.0143130551186783,44,1,64
0.0136555816014094,44,1,65
-0.0072075396717653,44,1,66
-0.0362314263919302,44,1,67
-0.0152177010533045,44,1,68
0.0237597364993081,44,1,69
-0.035132527178874,44,1,70
-0.038267789431875,44,1,71
0.0066556790107877,44,1,72
-0.0157217694966405,44,1,73
-0.0433261105181265,44,1,74
-0.0192474951940358,44,1,75
-0.0146741992780339,44,1,76
-0.0173131885584954,44,1,77
-0.002358345531716,44,1,78
-0.0083505739929694,44,1,79
0.0207134054882877,44,1,80
-0.0001822791606325,44,1,81
0.0311358898922367,44,1,82
-0.0052849204579533,43,1,0
-0.0012886961901029,43,1,1
0.0127143068061169,43,1,2
0.0101590826375919,43,1,3
-0.0105829273891594,43,1,4
0.0042366017215146,43,1,5
0.0247204726457873,43,1,6
-0.0146963246767709,43,1,7
-0.0263711862440907,43,1,8
0.0247570783685883,43,1,9
0.0167541802869464,43,1,10
-0.0033436860215608,43,1,11
0.0166034258253719,43,1,12
0.0177796945204116,43,1,13
0.0156625096669897,43,1,14
0.0236548309444321,43,1,15
0.0003651029966373,43,1,16
0.0141737254561689,43,1,17
0.0127434525571667,43,1,18
-0.0021016195769399,43,1,19
-0.0087331956908368,43,1,20
0.0147431867364453,43,1,21
-0.0041528331467918,43,1,22
0.015735998766974,43,1,23
0.0058535522378695,43,1,24
-0.0420771625483839,43,1,25
0.0127362702397976,43,1,26
0.0028247936489692,43,1,27
-0.0321658594915445,43,1,28
-0.0286879757503075,43,1,29
8.29612766872314e-05,43,1,30
-0.0031673306918907,43,1,31
-0.0162032035082056,43,1,32
-0.0163098228616323,43,1,33
-0.0211224922614087,43,1,34
-0.0033360872226184,43,1,35
0.0147616631318347,43,1,36
-0.0121011928500752,43,1,37
-0.0362536212042626,43,1,38
0.0241400180797379,43,1,39
0.0187466511663278,43,1,40
0.0077728926541769,43,1,41
-0.0037264465466194,43,1,42
0.0257681585537198,43,1,43
0.0277058249692929,43,1,44
0.0285515315415946,43,1,45
0.0047730600066072,43,1,46
0.0227279207838778,43,1,47
0.0398003767145849,43,1,48
0.0097729160567703,43,1,49
-0.0033582588970857,43,1,50
0.0216730756964414,43,1,51
0.0187393531596327,43,1,52
0.0246876200467271,43,1,53
0.019764809548435,43,1,54
-0.016240110023254,43,1,55
0.00265250380422,43,1,56
0.0336431217084796,43,1,57
-0.0170677913885374,43,1,58
-0.0246918556028504,43,1,59
0.0136480059403322,43,1,60
0.0076776020855683,43,1,61
-0.0277099679739555,43,1,62
-0.0151888098187718,43,1,63
-0.0007446159682028,43,1,64
-0.0031931282318403,43,1,65
-0.0163023513209484,43,1,66
-0.040238516687295,43,1,67
-0.0192801279833768,43,1,68
-0.0147071328596223,43,1,69
-0.0147949981632774,43,1,70
-0.0371178041719537,43,1,71
-0.0472857753389062,43,1,72
-0.005336330434931,43,1,73
0.0067074129178779,43,1,74
-0.0252616176753743,43,1,75
0.0276838619101342,43,1,76
0.0267278171929409,43,1,77
-0.0186447995399237,43,1,78
-0.0092039950535393,43,1,79
0.0341795915625047,43,1,80
0.0386170298225694,43,1,81
-0.0017667125769723,43,1,82
0.0147794222534034,43,1,83
0.0197062519608859,43,1,84
0.0146590629875985,43,1,85
0.0137503862748492,43,1,86
0.0033171399637791,43,1,87
-0.0625270838746556,46,1,0
-0.0286670730720085,46,1,1
-0.0046456611276817,46,1,2
-0.0154921414692382,46,1,3
0.0174292700212995,46,1,4
-0.003714566358506,46,1,5
-0.0236822603796667,46,1,6
0.036710215120532,46,1,7
0.0096134173960666,46,1,8
-0.0089811851072758,46,1,9
0.0533501043209774,46,1,10
0.0057695624834494,46,1,11
-0.0074467161617946,46,1,12
0.0275207315596166,46,1,13
0.0329586425412043,46,1,14
-0.0175153202507602,46,1,15
0.0227952955426505,46,1,16
0.0276192666244784,46,1,17
-0.006595716738726,46,1,18
0.0041682104194937,46,1,19
0.0089070016964183,46,1,20
0.0003922822784128,46,1,21
-0.0025156330964226,46,1,22
0.0205513718989713,46,1,23
0.0174215325676703,46,1,24
-0.0144464489057106,46,1,25
0.0068688692839565,46,1,26
-0.0145148105250407,46,1,27
-0.0024545985642581,46,1,28
0.0094068796189755,46,1,29
-0.0049428866364406,46,1,30
-0.029295211339185,46,1,31
0.0249363186847934,46,1,32
0.015383455610136,46,1,33
-0.0684885176881227,46,1,34
0.0083689023271062,46,1,35
0.0054838111286657,46,1,36
-0.0247738021084336,46,1,37
-0.0085308630827726,46,1,38
-0.0194994235796435,46,1,39
-0.0166791080938489,46,1,40
0.0172229984278605,46,1,41
0.0155214432211435,46,1,42
-0.0220565169105762,46,1,43
0.0143951451261757,46,1,44
0.0202757959524344,46,1,45
-0.0112713705577929,46,1,46
0.0058879524330748,46,1,47
0.0445113611266411,46,1,48
0.019452149346213,46,1,49
-0.0136603139231719,46,1,50
0.0062692251971468,46,1,51
0.0524727724517281,46,1,52
0.0093841219884935,46,1,53
0.0185974420156196,46,1,54
0.0324511491658585,46,1,55
-0.0041847862340789,46,1,56
-0.0031723819881619,46,1,57
0.0405273468320508,46,1,58
0.0126132949356125,46,1,59
-0.021964843111489,46,1,60
0.0084685797634747,46,1,61
0.0054682696754943,46,1,62
-0.0346243886114872,46,1,63
-0.0314831482829742,46,1,64
0.0265665131574373,46,1,65
-0.0145302854322991,46,1,66
-0.0165375900310846,46,1,67
-0.0095690511033665,46,1,68
-0.0195858577424176,46,1,69
-0.0121029542553826,46,1,70
-0.0076151212200148,46,1,71
-0.0291285742740137,46,1,72
0.0144060137560836,46,1,73
-0.0200757554866961,46,1,74
-0.0084473371037781,46,1,75
0.0185665809289868,46,1,76
0.0093992308932303,46,1,77
-0.0104694511506919,46,1,78
0.0229556792617538,46,1,79
-0.0245297293509784,46,1,80
0.0282143609191554,46,1,81
0.0319129277957058,46,1,82
-7.33815615227745e-05,45,1,0
0.0093000192782529,45,1,1
0.005353705154099,45,1,2
0.0348439668035449,45,1,3
-0.0049813188119201,45,1,4
-0.0185838369906827,45,1,5
0.0377675129467909,45,1,6
0.0264899038991449,45,1,7
-0.0074928303359757,45,1,8
-0.0054775331908945,45,1,9
0.0307755392511199,45,1,10
0.0361908256940517,45,1,11
-0.0054085726583472,45,1,12
0.0222760618296774,45,1,13
0.0544037228848877,45,1,14
0.0068612871041243,45,1,15
-0.0011420868481988,45,1,16
0.0019302705846654,45,1,17
0.0005224880718491,45,1,18
0.0059685579645151,45,1,19
0.0184139169616771,45,1,20
-0.0098699845196502,45,1,21
-0.0256364453556849,45,1,22
0.0083650391457843,45,1,23
0.0167663132016399,45,1,24
-0.0236288413002909,45,1,25
-0.0214265219224668,45,1,26
0.0042775507794167,45,1,27
-0.0055842937127476,45,1,28
-0.0465548938731812,45,1,29
-0.006523159208509,45,1,30
0.0025604319375573,45,1,31
-0.02915918026798,45,1,32
0.0148874741418572,45,1,33
-0.0044583616203013,45,1,34
-0.0536844442260409,45,1,35
-8.08084675579123e-05,45,1,36
0.0514500815203636,45,1,37
0.0025449570302989,45,1,38
-0.0429901630606933,45,1,39
0.001162742715954,45,1,40
0.0423549673762446,45,1,41
-0.0171525759333268,45,1,42
-0.0144921194404717,45,1,43
0.0286081205667284,45,1,44
0.0472476404481081,45,1,45
0.0074299813764172,45,1,46
-0.0085002903617628,45,1,47
0.0531819876283803,45,1,48
0.0259403813506497,45,1,49
0.0223449558163116,45,1,50
0.023947852927036,45,1,51
0.0024187807829671,45,1,52
-0.0050614141580273,45,1,53
0.0363287023952042,45,1,54
0.0074222993777155,45,1,55
-0.041322113143816,45,1,56
0.0148416150603426,45,1,57
0.0453434882825204,45,1,58
-0.0324487565913801,45,1,59
-0.0480203135582312,45,1,60
-0.0046610805800126,45,1,61
0.0090676027550963,45,1,62
-0.0037299303559094,45,1,63
-0.0149614246420191,45,1,64
-0.0463441380032321,45,1,65
0.0124297476996989,45,1,66
-0.0113814407419829,45,1,67
-0.050222267963824,45,1,68
-0.0136869680079323,45,1,69
0.0098915488179263,45,1,70
-0.0515588561073498,45,1,71
-0.0460509642225486,45,1,72
-0.0078441837168924,45,1,73
0.01255208294768,45,1,74
-0.0277282186672326,45,1,75
-0.0316209140742717,45,1,76
0.0049683917529371,45,1,77
0.0234980854518079,45,1,78
0.0064645061598374,45,1,79
-0.000546594308334,45,1,80
0.0139027162916246,45,1,81
-0.0028064621305078,45,1,82
0.026402015644481,45,1,83
0.0270471195373272,45,1,84
-0.0041418756598606,45,1,85
0.0002159844927664,45,1,86
0.0472705089884452,45,1,87
-0.0176908083944649,45,1,88
-0.0274377001807414,45,1,89
0.0245435118316833,45,1,90
0.0335202204550562,45,1,91
-0.0056646774244778,45,1,92
-0.0119425861074002,45,1,93
0.0168719989281896,45,1,94
0.0045067241861494,45,1,95
-0.0059887012008087,45,1,96
-0.0023630134930549,45,1,97
-0.0274589066792148,48,1,0
-0.0186829764150258,48,1,1
0.0074133109391731,48,1,2
-0.0733120111428746,48,1,3
-0.0417763993055227,48,1,4
0.0314725695736056,48,1,5
-0.0152397178605688,48,1,6
-0.0547261578872888,48,1,7
0.026446336238725,48,1,8
0.0234992990985658,48,1,9
0.0161287696331902,48,1,10
0.0036222961858036,48,1,11
0.0264612301971296,48,1,12
0.0102503658546363,48,1,13
-0.0095358316461257,48,1,14
0.0134623953181787,48,1,15
0.0517029672941503,48,1,16
-0.0487379949718873,48,1,17
-0.0191301261442672,48,1,18
0.068367640877763,48,1,19
-0.0130546216648512,48,1,20
-0.033260941485227,48,1,21
0.0714359748775789,48,1,22
0.0064405779538111,48,1,23
-0.0735093463223452,48,1,24
0.036422856855013,48,1,25
0.0237348956370875,48,1,26
-0.0175238346134741,48,1,27
0.0110538284571593,48,1,28
0.0186214362136506,48,1,29
-0.0385719898205712,48,1,30
-0.0025890030244366,48,1,31
0.0305293361727384,48,1,32
-0.0253490575707407,48,1,33
-0.0275271635543416,48,1,34
0.0454303160757236,48,1,35
-0.0023549519946312,48,1,36
-0.0636081489617311,48,1,37
-0.0072859932635873,48,1,38
0.0175608197420555,48,1,39
-0.0186261303014682,48,1,40
-0.0234718113650831,48,1,41
-0.0134604151573967,48,1,42
0.0054938459625481,48,1,43
-0.0072609850290058,48,1,44
0.0080423559644614,48,1,45
0.0036071023617919,48,1,46
-0.0258225304269019,48,1,47
0.0305370714842552,48,1,48
0.0343550329617151,48,1,49
-0.0225652502390739,48,1,50
-0.0095473538803529,48,1,51
0.0482631227367733,48,1,52
0.0528498301812713,48,1,53
-0.0330648743111013,48,1,54
0.0095764306980287,48,1,55
0.0453618977345007,48,1,56
0.0133108261434244,48,1,57
0.0276133786781574,48,1,58
0.021522338283731,48,1,59
-0.0104149410933538,48,1,60
0.0124473833852037,48,1,61
0.0414077223723943,48,1,62
-0.0211788661480487,48,1,63
-0.0224287134222351,48,1,64
0.0475516412852546,48,1,65
0.0184921272434552,48,1,66
-0.0224892465191377,48,1,67
-0.0154291331958413,48,1,68
0.0045389403946503,48,1,69
0.0265225706245127,48,1,70
-0.0363899469814565,48,1,71
-0.0009376260007001,48,1,72
0.0024184148900859,48,1,73
-0.0215124613453361,48,1,74
-0.0374129825582627,48,1,75
-0.0155806562374253,48,1,76
-0.0145507042128754,48,1,77
-0.0249250599698545,48,1,78
0.0004709843518449,47,1,0
0.0053114970078227,47,1,1
0.0054703632289758,47,1,2
-0.0046273965805059,47,1,3
-0.0074981762682922,47,1,4
0.0363469800012952,47,1,5
0.03079967034104,47,1,6
-0.0109904156026536,47,1,7
-0.0179482589461856,47,1,8
0.0374080116714232,47,1,9
0.0114550814551983,47,1,10
-0.0036123269810681,47,1,11
0.003538983886176,47,1,12
0.0373584356774114,47,1,13
0.0015087062877894,47,1,14
0.0084968796128819,47,1,15
0.0125004233697337,47,1,16
0.0324385014441496,47,1,17
0.0075956137607281,47,1,18
-0.0274741351031042,47,1,19
-0.0199897819797775,47,1,20
0.0175683935874761,47,1,21
-0.0085587235401319,47,1,22
-0.0222922919383222,47,1,23
-0.0235350728319614,47,1,24
0.0055352022467548,47,1,25
-0.0308827853388162,47,1,26
-0.0264741901279226,47,1,27
-0.0074826364455032,47,1,28
0.0005619858298189,47,1,29
-0.0249818868770948,47,1,30
-0.0159862266896332,47,1,31
-0.0179596427809018,47,1,32
-0.0026047504940028,47,1,33
-0.0004872583403525,47,1,34
-0.0214971752549838,47,1,35
-0.0175505276051278,47,1,36
0.0189318376665191,47,1,37
-0.0084489258481172,47,1,38
0.0059288352662027,47,1,39
0.0205304169523806,47,1,40
0.0359797862410642,47,1,41
-0.0029871496115381,47,1,42
0.0060463682697343,47,1,43
0.0393698017288315,47,1,44
0.0334686726012586,47,1,45
0.0014518332473788,47,1,46
0.0014178432093263,47,1,47
0.0453314870198922,47,1,48
0.0155798874718289,47,1,49
0.0023646905335152,47,1,50
0.0025164442409507,47,1,51
0.0094817691635628,47,1,52
0.0024708973687934,47,1,53
0.0143792471262918,47,1,54
-0.0055135032085258,47,1,55
-0.0373824219108506,47,1,56
0.0023269020394598,47,1,57
0.0345673082327607,47,1,58
-0.0268793799814754,47,1,59
-0.0624260972309683,47,1,60
0.0084475804178919,47,1,61
-0.0054301217091428,47,1,62
-0.0175651447645105,47,1,63
-0.0403668784797026,47,1,64
-0.0128185392381946,47,1,65
-0.0234553513890704,47,1,66
-0.0386473822760007,47,1,67
-0.0195177513359025,47,1,68
-0.038363282339677,47,1,69
-0.0339287777441863,47,1,70
-0.0009531773567817,47,1,71
-0.0141457450251742,47,1,72
-0.0212925430291144,47,1,73
-0.0053313157198965,47,1,74
0.0210719360235056,47,1,75
-0.0165812816768691,47,1,76
0.0315104618672942,47,1,77
0.0363889244834234,47,1,78
0.0094096215660924,47,1,79
0.0103678642582901,47,1,80
0.0469449602641583,47,1,81
0.0370178080426157,47,1,82
0.0013189910869098,47,1,83
0.027999426318892,47,1,84
0.0154774329593834,47,1,85
-0.0073465609603676,47,1,86
0.0239502895567126,47,1,87
0.0044100696895729,47,1,88
0.0044973303780068,47,1,89
0.0214921928348518,47,1,90
0.0078225359071471,50,1,0
-0.0465257915173281,50,1,1
-0.0071615723019565,50,1,2
0.0107207476307569,50,1,3
-0.0242081691145202,50,1,4
-0.0231576631594187,50,1,5
-0.0060827039147918,50,1,6
0.0077899469591665,50,1,7
0.0039311226102602,50,1,8
0.0239074502155871,50,1,9
-0.0099523132343605,50,1,10
0.0016997994864194,50,1,11
0.0426465032577549,50,1,12
0.0190535938602763,50,1,13
-0.0075342693280978,50,1,14
0.0028443472752455,50,1,15
0.0324665679886058,50,1,16
0.0155247986336731,50,1,17
-0.0101549737501159,50,1,18
-0.0056733078928549,50,1,19
0.0138799718416314,50,1,20
0.0117026850168136,50,1,21
-0.0141181122531377,50,1,22
-0.0169879504001132,50,1,23
0.0107644335973911,50,1,24
0.0229741831429178,50,1,25
0.010663398670648,50,1,26
-0.0079474773014652,50,1,27
-0.0191394407676888,50,1,28
0.0228362435957079,50,1,29
0.0235727834115954,50,1,30
-0.0205926839888422,50,1,31
-0.0135678652274652,50,1,32
-0.0189586845303917,50,1,33
0.0220615616392929,50,1,34
0.0061547728222444,50,1,35
-0.0321030162079794,50,1,36
-0.0035646787936509,50,1,37
0.0078515112906217,50,1,38
-0.0052205602414173,50,1,39
-0.037080632751897,50,1,40
-0.032327391544484,50,1,41
0.0558773487366351,50,1,42
0.0032066428688208,50,1,43
-0.0222010541586172,50,1,44
-0.0159446938631659,50,1,45
-0.0064728540339205,50,1,46
0.0043877735850528,50,1,47
0.0088154031432906,50,1,48
-0.0041113011102463,50,1,49
0.0052504299086986,50,1,50
0.0065401154385377,50,1,51
0.0166047213243827,50,1,52
-0.0092636652355578,50,1,53
0.0048009726292047,50,1,54
0.0300165793656956,50,1,55
0.0320191504191574,50,1,56
-0.0065429907432326,50,1,57
-0.006093377439743,50,1,58
0.0408204565871404,50,1,59
0.0153798682088001,50,1,60
-0.0112413367359993,50,1,61
0.0269228116650602,50,1,62
0.0063586971730403,50,1,63
0.0048877761893461,50,1,64
0.0003047522127798,50,1,65
-0.0110094890899182,50,1,66
-0.0051005882155973,50,1,67
0.0139522765654644,50,1,68
-0.0471161778125555,50,1,69
