Acc_X,run_ID,Status,time_ms
-0.0192660318661863,2,1,0
-0.0101142264373867,2,1,1
-0.0301782589738584,2,1,2
-0.0367646010150454,2,1,3
-0.0352858759087271,2,1,4
-0.001289394336616,2,1,5
-0.0013463011121629,2,1,6
0.0109637409763798,2,1,7
-0.0150754544653537,2,1,8
-0.0466771981831185,2,1,9
-0.0341309184473935,2,1,10
-0.0070132665135112,2,1,11
0.0037797586592569,2,1,12
0.0448534808725107,2,1,13
0.0447626489029549,2,1,14
0.0084328094948273,2,1,15
-0.0375580487386154,2,1,16
-0.0519451030256104,2,1,17
-0.0282147654058736,2,1,18
0.0186589028298717,2,1,19
0.0696560744372804,2,1,20
0.0508070544746734,2,1,21
0.0034501691407727,2,1,22
-0.0182844337917347,2,1,23
-0.0274544709015609,2,1,24
-0.0178530615574921,2,1,25
-0.0151000825548425,2,1,26
0.0049140053524182,2,1,27
0.0187050404270964,2,1,28
0.0330495033461618,2,1,29
0.0276733835855883,2,1,30
0.0158915516828072,2,1,31
-0.0100491756172556,2,1,32
-0.0322579884463788,2,1,33
-0.0095444301270297,2,1,34
0.0203838889852156,2,1,35
0.0218583747659319,2,1,36
0.0258689853468843,2,1,37
0.008580317951784,2,1,38
-0.0044845365979959,2,1,39
-0.0013213430438285,2,1,40
0.0039405222222615,2,1,41
0.0009610811033593,2,1,42
0.0089350369975373,2,1,43
-0.0073683485274382,2,1,44
-0.0100414955746266,2,1,45
0.0098633545830771,2,1,46
0.0277941736968761,2,1,47
0.0416904178925742,2,1,48
0.0248438858577189,2,1,49
0.0209422192343041,2,1,50
-0.0448146914933452,2,1,51
-0.0410398523105453,2,1,52
-0.0111718186930597,2,1,53
0.0218138762549471,2,1,54
0.0494764856368486,2,1,55
0.0429333617720707,2,1,56
0.0067762096160607,2,1,57
-0.027258077985974,2,1,58
-0.0382212653002086,2,1,59
-0.0084282991799004,2,1,60
0.0184347689416332,2,1,61
0.0093520610968114,2,1,62
0.0047183741198449,2,1,63
-0.0251714156455903,2,1,64
-0.0021506807261895,2,1,65
-0.0116681438167603,2,1,66
-0.006476655392728,2,1,67
-0.0037162269813656,2,1,68
0.0017686844001424,2,1,69
-0.0269968518739742,2,1,70
-0.0210410156766834,2,1,71
-0.0292941573342401,2,1,72
-0.0002936690322057,2,1,73
0.0113155401565483,2,1,74
-0.006020050444443,2,1,75
-0.0230478546957171,2,1,76
-0.0491920456075848,2,1,77
-0.0644149798401221,2,1,78
-0.0152523103033753,2,1,79
0.007819254248357,2,1,80
0.0198766640251684,2,1,81
0.0068051235097159,2,1,82
-0.0091143966819084,2,1,83
-0.0273670545870692,2,1,84
-0.0280261613447748,2,1,85
-0.0261012559056166,2,1,86
-0.0202043135060847,2,1,87
-0.0077450474809728,2,1,88
-0.0022527607300411,2,1,89
0.0026967843619641,2,1,90
0.0228256138242291,2,1,91
0.0042978255536477,2,1,92
-0.0062089482975613,2,1,93
0.0029174677045063,2,1,94
0.0080441620807823,2,1,95
-0.0021803345404864,2,1,96
0.0009287406734542,2,1,97
-0.006462984020298,2,1,98
0.0053097287632483,2,1,99
0.0212676714433806,2,1,100
0.0178224291641771,2,1,101
0.014268036184904,2,1,102
0.0047617123167699,2,1,103
-0.0041292151979789,2,1,104
0.0228183690290365,2,1,105
0.0371832210394596,2,1,106
0.0375708633540845,2,1,107
0.062808623402593,2,1,108
0.0453060760765936,2,1,109
-0.017142710302403,2,1,110
-0.0112592785322951,2,1,111
0.0172065649197979,2,1,112
0.0493530738512978,2,1,113
0.0503747359230271,2,1,114
0.0072396393693748,2,1,115
-0.0033033040518678,2,1,116
0.0034393998786569,2,1,117
0.0169565519514615,2,1,118
0.0329626723686344,2,1,119
0.0107032112602781,2,1,120
0.0062397443267811,2,1,121
0.0017762773932841,2,1,122
0.0078668169351652,2,1,123
0.0088736520997461,2,1,124
0.0154059414152929,2,1,125
0.0044575048399054,2,1,126
-0.0218884653470261,2,1,127
-0.028084119706316,2,1,128
0.0051783229309795,2,1,129
0.0177827351272203,2,1,130
0.0157538352870314,2,1,131
0.0070953288024862,2,1,132
-0.0085091167194845,2,1,133
-0.0342648274654125,2,1,134
-0.0298061983985261,2,1,135
-0.0119617778928553,2,1,136
-0.00461448814873,2,1,137
0.0017691631723224,2,1,138
-0.0181499045461189,2,1,139
-0.0221421419906278,2,1,140
-0.0301892204702586,2,1,141
-0.0332035257626558,2,1,142
-0.0311129145890985,2,1,143
-0.0171137746463761,2,1,144
-0.0252218680634771,2,1,145
-0.0088210890413906,2,1,146
-0.0073319722148722,2,1,147
-0.0056107716749133,2,1,148
-0.0480468847008173,2,1,149
-0.006773979282547,2,1,150
-0.0001402084283736,2,1,151
-0.0021220279809962,2,1,152
-0.0060203877612061,2,1,153
-0.0017527370404429,2,1,154
0.0123988591557165,2,1,155
0.0519108786311822,2,1,156
0.0258472727236781,2,1,157
0.0517041517009159,2,1,158
0.0657395591443453,1,1,0
-0.0175884850775437,1,1,1
-0.093007591581828,1,1,2
-0.0732336047474,1,1,3
-0.0138133521027242,1,1,4
0.0482336070444677,1,1,5
0.0706343003814116,1,1,6
0.0612073537060054,1,1,7
-0.0071003128676821,1,1,8
-0.0415978778864283,1,1,9
-0.078081037191996,1,1,10
-0.057578641520427,1,1,11
0.0048159612312275,1,1,12
0.113559036726015,1,1,13
0.0652397313160934,1,1,14
-0.0240842892686654,1,1,15
-0.0775992343022385,1,1,16
-0.0607309243570617,1,1,17
-0.0383228447695083,1,1,18
0.0519542168281072,1,1,19
0.0967994422334719,1,1,20
0.0417230738768707,1,1,21
-0.011813540255165,1,1,22
-0.0292035212260306,1,1,23
-0.0101105605150467,1,1,24
0.0508273855330395,1,1,25
0.0116741488844731,1,1,26
0.0013560879062219,1,1,27
-0.0240551686324779,1,1,28
-0.023138556091042,1,1,29
-0.0071287479891572,1,1,30
0.0402085458612485,1,1,31
0.0619972888963544,1,1,32
0.0070768903789274,1,1,33
-0.0699183684248602,1,1,34
-0.0931780183678297,1,1,35
-0.0943628080244386,1,1,36
0.0006240675526703,1,1,37
0.0866987164768889,1,1,38
0.0838619521914551,1,1,39
0.0089427605649099,1,1,40
-0.0770519562260995,1,1,41
-0.100557692066604,1,1,42
-0.0840443902141272,1,1,43
-0.0272146527395618,1,1,44
0.0677576897224183,1,1,45
0.0528421657431639,1,1,46
0.0049539605378368,1,1,47
-0.0486369133898423,1,1,48
-0.0701827925682059,1,1,49
-0.0302834789760643,1,1,50
-0.0182734469059007,1,1,51
0.0159930223402479,1,1,52
1.2062844902831098e-05,1,1,53
-0.0161463179643607,1,1,54
-0.0198635991424234,1,1,55
-0.0134111222670408,1,1,56
-0.0072012394658274,1,1,57
-0.0001439287566431,1,1,58
-0.0079730431528976,1,1,59
-0.0310911475599629,1,1,60
-0.049655105400578,1,1,61
-0.0461845716253157,1,1,62
-0.0373516677592234,1,1,63
0.0027835478053014,1,1,64
0.0237315441530366,1,1,65
0.0204637340689375,1,1,66
-0.0151647416522809,1,1,67
-0.0522241364523864,1,1,68
-0.0712627720806114,1,1,69
-0.0741683836827472,1,1,70
-0.0141646072235972,1,1,71
0.0583380640105061,1,1,72
0.0632652762517085,1,1,73
0.029709267072508,1,1,74
0.0006313341102348,1,1,75
-0.0551477077059011,1,1,76
-0.0569589807794769,1,1,77
-0.0269756397853199,1,1,78
0.0482842444425149,1,1,79
0.0606311290926535,1,1,80
0.0326366239414076,1,1,81
0.0097396925302504,1,1,82
-0.008324774798876,1,1,83
-0.0140341138606423,1,1,84
0.0199054364634068,1,1,85
0.0343211543767811,1,1,86
0.0221587422214819,1,1,87
0.0096015626494101,1,1,88
0.0207680177141033,1,1,89
0.0213693379621677,1,1,90
0.039955236930893,1,1,91
0.063681658361014,1,1,92
0.0417083340192095,1,1,93
0.0018087048726765,1,1,94
-0.0221209951890889,1,1,95
-0.0310548474156983,1,1,96
-0.0071869674991602,1,1,97
0.0717248750569584,1,1,98
0.0841696297293132,1,1,99
0.0601928602611673,1,1,100
0.0407376357811046,1,1,101
-0.0470757294529042,1,1,102
-0.0510644750740477,1,1,103
-0.0151611736606141,1,1,104
0.0332234872426444,1,1,105
0.057656887797534,1,1,106
0.0512152345901967,1,1,107
0.0378176216380708,1,1,108
-0.0271057958315116,1,1,109
-0.0280623417959944,1,1,110
-0.0226823928952924,1,1,111
-0.0026872439461423,1,1,112
0.012873460775025,1,1,113
0.0103664674921622,1,1,114
0.0003091234572478,1,1,115
-0.008179291310984,1,1,116
-0.0116503365019841,1,1,117
-0.0166538475976133,1,1,118
-0.0246023596591297,1,1,119
-0.0310184058160169,1,1,120
-0.0180556133967554,1,1,121
-0.0071759479697685,1,1,122
0.0057579849617672,1,1,123
-0.0012017168736625,1,1,124
-0.0055601125144943,1,1,125
-0.0269899226331729,1,1,126
-0.0499886076126044,1,1,127
-0.0750883248297599,1,1,128
-0.0397501305696133,1,1,129
-0.0113098179996691,1,1,130
0.0163190838957353,1,1,131
-0.0136392593943825,1,1,132
-0.0551150408404187,1,1,133
-0.0701178940846775,1,1,134
-0.068610610864248,1,1,135
-0.0202006693461166,1,1,136
0.0212134986972244,1,1,137
0.0162935203700287,1,1,138
-0.0020964644552897,1,1,139
-0.0262255596026416,1,1,140
-0.0393736710021687,1,1,141
-0.0256676210762459,1,1,142
-0.0041255492756389,1,1,143
-0.0070673522101802,1,1,144
-0.0164183351008481,1,1,145
-0.0053139286862864,1,1,146
0.003298039322913,1,1,147
0.0167825680549789,1,1,148
0.0117539504434513,1,1,149
0.00533400985932,1,1,150
-0.0061073361847038,1,1,151
-0.0220699551871632,1,1,152
-0.0056398923111007,1,1,153
0.0247494097281951,1,1,154
0.0476972396858613,1,1,155
0.02688351143528,1,1,156
-0.0291783494230168,1,1,157
-0.0242694450311424,1,1,158
9.84694561797558e-05,1,1,159
0.0251803902397449,1,1,160
0.0308033009278625,1,1,161
0.0260068105545191,1,1,162
0.0281548816056578,1,1,163
0.0234414037544165,1,1,164
0.0302272068887415,1,1,165
0.0189092182243389,1,1,166
-0.0065310936634328,1,1,167
-0.0027380119184204,1,1,168
0.0008418901806297,1,1,169
0.0442120639836109,1,1,170
0.0457192166298095,1,1,171
0.0316763685298412,1,1,172
0.0208113341486565,1,1,173
-0.0040893035373039,1,1,174
-0.0617482481199995,1,1,175
-0.0244907268389094,1,1,176
-0.0115457271606821,1,1,177
0.0315677655816231,1,1,178
0.0529909234307032,1,1,179
0.0128445468813698,1,1,180
-0.0481844922847339,1,1,181
-0.049716979951735,1,1,182
-0.0420469595047739,1,1,183
0.0069572424463896,1,1,184
0.0217458954602854,1,1,185
0.0232388631893042,1,1,186
0.0276987730123203,1,1,187
-0.0241057080998519,1,1,188
-0.0295403846871916,1,1,189
-0.0361199283892791,1,1,190
-0.0351598906014309,1,1,191
-0.0203813779879429,1,1,192
-0.0064697282809389,1,1,193
-0.0079006364786402,1,1,194
0.0051710890169727,1,1,195
0.0052943484659209,1,1,196
-0.0228741319476963,1,1,197
-0.0369747099043017,1,1,198
-0.0432429971956785,1,1,199
-0.0383009580473277,1,1,200
-0.0211787320724592,1,1,201
0.0039503342857877,1,1,202
0.0258400714532291,1,1,203
-0.0036907178615887,1,1,204
-0.0452061062950945,1,1,205
-0.0526333064100569,1,1,206
-0.0404098117830975,1,1,207
0.006029838880466,1,1,208
-0.0199847506283822,4,1,0
-0.0044032100475641,4,1,1
-0.0069140979988923,4,1,2
-0.0023689134653773,4,1,3
-0.0405329491212495,4,1,4
-0.0425399891295174,4,1,5
-0.0219772546293793,4,1,6
-0.00534270789926,4,1,7
0.0020061391269013,4,1,8
0.0053738589778846,4,1,9
-0.0075162713805671,4,1,10
-0.0334765815812358,4,1,11
-0.0584858989773454,4,1,12
-0.0234925129015493,4,1,13
-0.0106590515798317,4,1,14
0.0220009769946795,4,1,15
0.0275985889154306,4,1,16
0.0304544154628268,4,1,17
0.0234865349115215,4,1,18
-0.0079785991010565,4,1,19
-0.0079555524539515,4,1,20
-0.0004071950685658,4,1,21
0.0005773066428644,4,1,22
0.0219442398682906,4,1,23
0.0144147192031959,4,1,24
0.0069679098832451,4,1,25
-0.0016181459614173,4,1,26
0.0090472443699937,4,1,27
0.0164064401731637,4,1,28
0.0162361493560663,4,1,29
0.0195473481904266,4,1,30
-0.0023098161811278,4,1,31
-0.0085309799341178,4,1,32
-0.0121852789438686,4,1,33
0.0149030665355434,4,1,34
0.0485061787333962,4,1,35
0.0215311940240042,4,1,36
0.0081336412991222,4,1,37
-0.0085499868785457,4,1,38
-0.0299239554679537,4,1,39
-0.0124518749974677,4,1,40
0.0144523397427091,4,1,41
0.0324253784697427,4,1,42
0.0246590637228969,4,1,43
0.0035363381039605,4,1,44
-0.0019294054264771,4,1,45
0.0054981245904267,4,1,46
0.004062472359648,4,1,47
0.0056075477922518,4,1,48
-0.0028279164245642,4,1,49
-0.0060007859702273,4,1,50
-0.0176012445963164,4,1,51
0.0295344579245208,4,1,52
0.0345492779011259,4,1,53
0.0360757662755059,4,1,54
0.0255162701156531,4,1,55
-0.0061285617204259,4,1,56
-0.025336649253251,4,1,57
-0.018879595612917,4,1,58
0.0050288068990587,4,1,59
0.0309439089710288,4,1,60
0.0493479526050943,4,1,61
0.0195353539134289,4,1,62
-0.0058120596354554,4,1,63
-0.0212927595842474,4,1,64
-0.0230601839139063,4,1,65
-0.0074516666257539,4,1,66
-0.0013018025432852,4,1,67
-0.0113009859923077,4,1,68
-0.001240549086636,4,1,69
-0.0066479785728763,4,1,70
-0.0026479883131997,4,1,71
-0.0065575813443748,4,1,72
-0.0109141753771194,4,1,73
-0.0204961597964205,4,1,74
-0.0253375684635899,4,1,75
-0.0218494524786047,4,1,76
-0.010474894303735,4,1,77
0.002957253094838,4,1,78
0.002918981863295,4,1,79
-0.0055122383818796,4,1,80
-0.0494566471876551,4,1,81
-0.0494566471876551,4,1,82
-0.0113840718305526,4,1,83
-0.018522783903229,4,1,84
-0.0069972973198951,4,1,85
-0.0079894925953028,4,1,86
-0.0003618961536609,4,1,87
0.0040583305224888,4,1,88
0.0029153012924791,4,1,89
-0.010677294867434,4,1,90
-0.0389499619342721,4,1,91
-0.0375327605824076,4,1,92
-0.0016144921001169,4,1,93
0.0385977065969413,4,1,94
0.0534839267280359,4,1,95
0.0534839267280359,4,1,96
-0.0154854816569746,4,1,97
-0.043073941780216,4,1,98
-0.0464191370047806,4,1,99
-0.0313073642060521,4,1,100
0.0324246785442998,4,1,101
0.0444543344900719,4,1,102
0.0249478212580896,4,1,103
0.0023701981501551,4,1,104
-0.0063992203822763,4,1,105
0.0193801097760128,4,1,106
0.0193801097760128,4,1,107
0.0351392867816662,4,1,108
0.025658907169179,4,1,109
0.0054870687253176,4,1,110
0.0034944093434613,4,1,111
0.0144109859039651,4,1,112
0.0478861332348723,4,1,113
0.0390222020009876,4,1,114
0.0165275172037127,4,1,115
-0.0053236669100048,4,1,116
0.00336600189376,4,1,117
0.0227352003390802,4,1,118
0.0227352003390802,4,1,119
0.0499874589790776,4,1,120
0.027508785464926,4,1,121
0.005058809472215,4,1,122
-0.039359036165536,4,1,123
-0.0046556674925676,4,1,124
0.0370790025727451,4,1,125
0.0416731171859138,4,1,126
0.0156897943829675,4,1,127
-0.029480589298789,4,1,128
-0.0403963941765392,4,1,129
-0.0183683151162224,4,1,130
-0.0093725154920244,4,1,131
0.0343945784809476,4,1,132
-0.0033311515607319,4,1,133
-0.0083844053123969,4,1,134
-0.0584476434523503,4,1,135
-0.0254055962738777,4,1,136
-0.004899092068028,4,1,137
0.0311285428747086,4,1,138
0.0226478478326425,4,1,139
-0.0163903471224961,4,1,140
-0.0814096295537541,4,1,141
-0.0505544642760023,4,1,142
-0.015045406204285,4,1,143
0.0187045529739075,4,1,144
0.0040548241887737,4,1,145
-0.0204132328340366,4,1,146
-0.0273978165679801,4,1,147
0.0060470331346003,4,1,148
0.0315985074177966,4,1,149
-0.0194211056482836,4,1,150
-0.0685301170085818,4,1,151
0.0324772057438748,4,1,152
-0.0190681897813434,4,1,153
-0.0235415110708577,4,1,154
0.0525778810418324,4,1,155
0.0054870041306647,3,1,0
0.0036530917249378,3,1,1
0.0049567507343696,3,1,2
-0.0019447698578805,3,1,3
-0.0124101732024842,3,1,4
-0.0074517612522702,3,1,5
-0.0165344594518744,3,1,6
0.016426173407242,3,1,7
0.0190389612205545,3,1,8
0.0203991076943079,3,1,9
0.0416807994016155,3,1,10
-0.0135875130539823,3,1,11
-0.0104065260451735,3,1,12
-0.0182813938442646,3,1,13
0.003335613479227,3,1,14
0.0024115708451407,3,1,15
0.0159372700093809,3,1,16
0.0384547517916934,3,1,17
0.0195765109911745,3,1,18
0.0353037787043167,3,1,19
0.0245233939436981,3,1,20
0.0140125668531559,3,1,21
-0.0072329602417233,3,1,22
0.0045770889659209,3,1,23
-0.0175416787104119,3,1,24
0.0080359286674002,3,1,25
0.0374433339546178,3,1,26
0.0418260347177708,3,1,27
0.0339398648865051,3,1,28
0.0164898551114064,3,1,29
-0.0133533022189289,3,1,30
-0.0073162957420355,3,1,31
0.0075471160557455,3,1,32
0.0135918614897194,3,1,33
0.0259478462767843,3,1,34
0.041514877387193,3,1,35
0.0044945251483623,3,1,36
-0.0102853695766939,3,1,37
-0.0089178018975819,3,1,38
-0.0206397841499399,3,1,39
-0.0001883032718126,3,1,40
-0.0088236069478508,3,1,41
0.0178107171819417,3,1,42
0.0233576738760968,3,1,43
0.025425104872054,3,1,44
0.0146075006018847,3,1,45
0.0034491104285565,3,1,46
-0.0134024365675467,3,1,47
-0.0474797232353013,3,1,48
-0.0462678190872837,3,1,49
0.0054641390559723,3,1,50
0.0074112760524098,3,1,51
0.023519828546461,3,1,52
0.0194786281353157,3,1,53
-0.0069480267919678,3,1,54
-0.026427884908648,3,1,55
-0.0512227360520584,3,1,56
-0.0294428704651037,3,1,57
-0.0076404235103514,3,1,58
-0.0014746691354831,3,1,59
-0.0084328587644675,3,1,60
-0.0133301988304449,3,1,61
-0.0025806337188392,3,1,62
-0.011655048244125,3,1,63
0.0039945807286697,3,1,64
-0.0043729805088921,3,1,65
-0.0421554930700638,3,1,66
-0.0443361713532832,3,1,67
-0.0334124232494883,3,1,68
0.0164411293007169,3,1,69
0.0374020293492869,3,1,70
0.0324398500550147,3,1,71
-0.0214056777715117,3,1,72
-0.0348594456020963,3,1,73
-0.0543434569042115,3,1,74
-0.0454266353259265,3,1,75
0.0234026550392796,3,1,76
0.0288721659137756,3,1,77
0.0429165440835173,3,1,78
0.0340228258937163,3,1,79
0.0035625846813344,3,1,80
-0.0314277603400539,3,1,81
-0.0075272670092955,3,1,82
0.0163878190701126,3,1,83
0.0096148874999763,3,1,84
0.0266739561710033,3,1,85
0.0186293195755012,3,1,86
0.0183653558293589,3,1,87
0.0065624781650057,3,1,88
0.0313492725996135,3,1,89
0.0309813894909226,3,1,90
0.032515196936179,3,1,91
0.025606323228225,3,1,92
0.0066565482837032,3,1,93
0.0153956237947048,3,1,94
0.0183729132140269,3,1,95
0.0432881150983359,3,1,96
0.0406356797369801,3,1,97
0.0563926776646597,3,1,98
0.0305266078068254,3,1,99
0.002569890081792,3,1,100
-0.017609422813805,3,1,101
0.0214101850831099,3,1,102
0.0264515126474319,3,1,103
0.0475708340671353,3,1,104
0.054104392112764,3,1,105
0.0359886520828596,3,1,106
-0.0055348197496774,3,1,107
-0.0354277242355229,3,1,108
-0.0235110091735668,3,1,109
0.003471805279112,3,1,110
0.0224178355761273,3,1,111
0.0345792804742821,3,1,112
0.0204407981410156,3,1,113
-0.0033843029154753,3,1,114
-0.0145040436965037,3,1,115
-0.0214621992806607,3,1,116
-0.0138458708263661,3,1,117
0.0175162742350601,3,1,118
0.0135656716537245,3,1,119
-0.0054745422447459,3,1,120
-0.0275708647325906,3,1,121
-0.0184057615912888,3,1,122
-0.0075650085395324,3,1,123
0.0257120585239223,3,1,124
0.010190405766349,3,1,125
-0.0182551813117181,3,1,126
-0.0444568398459039,3,1,127
-0.0484340408011627,3,1,128
-0.0333858702686682,3,1,129
0.0194635814556344,3,1,130
0.021061513187811,3,1,131
0.0190728105756995,3,1,132
-0.0354649437450736,3,1,133
-0.0763569205193269,3,1,134
-0.0813488981177912,3,1,135
-0.0583503199843529,3,1,136
-0.007625490313428,3,1,137
0.0099942315167029,3,1,138
0.0342739780779816,3,1,139
-0.008247941153893,3,1,140
-0.0384724173099646,3,1,141
-0.0609407193505561,3,1,142
-0.0563280971170943,3,1,143
-0.0284807912456101,3,1,144
-0.0169248671869841,3,1,145
-0.001565471234257,3,1,146
0.0024646541102293,3,1,147
-0.0087232393121204,3,1,148
-0.0343218277418216,3,1,149
-0.0043085952116289,3,1,150
-0.0079179811478515,3,1,151
0.0105770121125731,3,1,152
-0.0055653443435199,3,1,153
-0.0202472881230626,3,1,154
-0.0154286764409309,3,1,155
-0.0084743222456594,3,1,156
0.0059530424538334,3,1,157
0.0208992109898615,3,1,158
0.0504612476076027,3,1,159
-0.0113084979838725,3,1,160
-0.0272847735496821,3,1,161
-0.0443663328023005,3,1,162
0.016304824018074,3,1,163
0.0240046128037144,3,1,164
0.0704746611853288,3,1,165
0.0553180093578996,3,1,166
0.0204478335049974,3,1,167
-0.0090386406143395,3,1,168
-0.0452006627720885,3,1,169
-0.0218205395489467,3,1,170
0.0049152078152471,3,1,171
0.0217427428530906,6,1,0
0.0023527301136376,6,1,1
-0.0070298373924745,6,1,2
-0.0726352424269474,6,1,3
-0.0693411949551526,6,1,4
-0.0064735947407786,6,1,5
0.0020068586408601,6,1,6
0.0285540596263767,6,1,7
-0.0125336900920474,6,1,8
-0.0189501968600001,6,1,9
-0.0577561364213495,6,1,10
-0.0444110003560524,6,1,11
0.0136004607938362,6,1,12
0.0363121816797099,6,1,13
0.0526282955974442,6,1,14
0.021129963681762,6,1,15
-0.0363131483683411,6,1,16
-0.0095263682687661,6,1,17
0.0231554855445492,6,1,18
0.0459703446134904,6,1,19
0.0522030822923238,6,1,20
0.0291063840939985,6,1,21
-0.0030566416815752,6,1,22
-0.0554854870802682,6,1,23
-0.0074132674444119,6,1,24
0.0192986906353124,6,1,25
0.0734159004601204,6,1,26
0.0474398883679025,6,1,27
0.0355534871368912,6,1,28
-0.0182316929039319,6,1,29
-0.0285174904388072,6,1,30
-0.0024966169188216,6,1,31
0.0215128261597201,6,1,32
0.0355425952971175,6,1,33
-0.0095036991738109,6,1,34
-0.0214275681721456,6,1,35
-0.0307654706849333,6,1,36
0.0024130145451506,6,1,37
0.0129838656017497,6,1,38
0.0358241654502818,6,1,39
0.0282911870859858,6,1,40
0.0214787317054507,6,1,41
-0.017509875851498,6,1,42
-0.0393961322209627,6,1,43
-0.0124616738112713,6,1,44
0.0502288323719234,6,1,45
0.05565051825641,6,1,46
0.012720822789165,6,1,47
-0.0253292472121091,6,1,48
-0.0534702633210258,6,1,49
0.0327649404346558,6,1,50
0.0327649404346558,6,1,51
0.0925870586181703,6,1,52
0.0656802772295485,6,1,53
-0.0384675783866947,6,1,54
-0.0659618116818502,6,1,55
-0.0070521761414248,6,1,56
0.050748745863545,6,1,57
0.0696564604479344,6,1,58
0.0100781801069401,6,1,59
-0.0134728860335381,6,1,60
-0.0663339866466671,6,1,61
-0.0359265152755436,6,1,62
-0.00551904390442,6,1,63
0.050969971368508,6,1,64
0.0251109391481502,6,1,65
-0.0043081366648963,6,1,66
-0.0512143558949148,6,1,67
-0.0574210511657391,6,1,68
-0.0451590221964998,6,1,69
0.0216223783166971,6,1,70
0.0282309026544727,6,1,71
-0.0058982719852937,6,1,72
-0.034494269016261,6,1,73
-0.0784761199494663,6,1,74
-0.0624621546839908,6,1,75
-0.005586483615306,6,1,76
0.0444404483186877,6,1,77
0.0334179783016124,6,1,78
0.0158636824200344,6,1,79
-0.0463658715749041,6,1,80
-0.0559212743837338,6,1,81
-0.0444559525956566,6,1,82
-0.0146468817282383,6,1,83
0.0154606806913954,6,1,84
0.0355234243814918,6,1,85
0.0077138137251826,6,1,86
-0.0384716100855647,6,1,87
-0.0636806485591118,6,1,88
-0.0226153522575307,6,1,89
-0.0105561384267609,6,1,90
0.0358170782797864,6,1,91
0.0474845908749559,6,1,92
0.0103523871948086,6,1,93
0.0029768665354029,6,1,94
-0.0555681908741854,6,1,95
-0.002556674320743,6,1,96
0.0019054606934597,6,1,97
0.045673048425922,6,1,98
0.029471142695412,6,1,99
0.0306820726378949,6,1,100
-0.0167440146778268,6,1,101
-0.0325320608943629,6,1,102
-0.01649173537945,6,1,103
0.0355834136745356,6,1,104
0.0755210968074488,6,1,105
0.0436281592130659,6,1,106
0.0195395105199362,6,1,107
-0.0386145074991583,6,1,108
-0.0231416416918116,6,1,109
0.005491902566836,6,1,110
0.0724758191032219,6,1,111
0.0776188881428534,6,1,112
0.0355607672825396,6,1,113
-0.0125480687596709,6,1,114
-0.0493127500459582,6,1,115
-0.0368247679733407,6,1,116
0.0214565393726382,6,1,117
0.0864301986467893,6,1,118
0.0716716842071767,6,1,119
0.0455417693467957,6,1,120
-0.0261026723184185,6,1,121
-0.0676280063333733,6,1,122
-0.0425088496360756,6,1,123
0.0445229931918907,6,1,124
0.0476806855495671,6,1,125
0.0448393615910588,6,1,126
-0.0324867000014935,6,1,127
-0.0404186222333091,6,1,128
-0.0445271437610184,6,1,129
0.004713874210866,6,1,130
0.0290916535305078,6,1,131
0.0244940488175945,6,1,132
0.0160851803605075,6,1,133
-0.0523877159067581,6,1,134
-0.0553194438095768,6,1,135
-0.0413279370430737,6,1,136
0.0044277161363319,6,1,137
0.0285016456174506,6,1,138
0.0166753812487177,6,1,139
-0.0272692630011948,6,1,140
-0.07040845558343,6,1,141
-0.0639544696966744,6,1,142
-0.0045789966019603,6,1,143
0.0336591614335829,6,1,144
0.0161678728029452,6,1,145
-0.0255399021780172,6,1,146
-0.0435238211217023,6,1,147
-0.0012555674635414,6,1,148
0.008427226835489,6,1,149
0.0033531569257357,6,1,150
-0.0073756748108131,6,1,151
-0.0281086304468671,6,1,152
0.0161377419386683,6,1,153
0.0181941359711958,6,1,154
-0.0014702768312786,6,1,155
0.027057939944415,6,1,156
0.0195018270745007,6,1,157
0.0043450009909351,6,1,158
0.0243816568671042,6,1,159
0.0636192839241716,6,1,160
0.0194268915398541,6,1,161
0.0503797023714203,6,1,162
0.0553338774217318,5,1,0
0.017510112419703,5,1,1
-0.0013537396671225,5,1,2
-0.0493652662182005,5,1,3
-0.0463657353571491,5,1,4
-0.0185703671507083,5,1,5
0.0415077668915837,5,1,6
0.0374558081290618,5,1,7
0.0420608859627766,5,1,8
0.0184493764700711,5,1,9
-0.0019965021334934,5,1,10
-0.025460980350419,5,1,11
-0.0113757303809904,5,1,12
0.0135100568495257,5,1,13
0.0325085386255723,5,1,14
0.0255545401168048,5,1,15
0.0195170911575319,5,1,16
0.0114613743188709,5,1,17
0.0324634047622947,5,1,18
0.0044352573660109,5,1,19
0.0147357287069789,5,1,20
0.010096658582311,5,1,21
-0.0053607688929993,5,1,22
0.007533028539521,5,1,23
0.0194343306062168,5,1,24
0.0404255827246627,5,1,25
0.0335990813287025,5,1,26
0.0236070966128361,5,1,27
0.0154645648210307,5,1,28
-0.0074360954600813,5,1,29
-0.0083757454607554,5,1,30
0.0024769106707889,5,1,31
0.021475710288264,5,1,32
0.0384557879671673,5,1,33
0.0405009609670132,5,1,34
0.0394780736528812,5,1,35
0.0285240082224569,5,1,36
-0.0099395659376337,5,1,37
-0.0443055820612616,5,1,38
-0.0323364429818943,5,1,39
-0.0015116060252781,5,1,40
0.0365537961679048,5,1,41
0.0424026689792861,5,1,42
0.0298999563431781,5,1,43
-0.0243368994155192,5,1,44
-0.0392944277836134,5,1,45
-0.0422376832090627,5,1,46
-0.0343551081630681,5,1,47
0.0165700537657637,5,1,48
-0.0015190791460795,5,1,49
0.0040370740476236,5,1,50
-0.0044358608072954,5,1,51
-0.0104883468200077,5,1,52
-0.0053981571999654,5,1,53
-0.0063985002854178,5,1,54
-0.0293667137922117,5,1,55
-0.0316823206343568,5,1,56
-0.0333738451814048,5,1,57
-0.0238442123450739,5,1,58
-0.0103678006599408,5,1,59
0.0070068486432245,5,1,60
0.0263812987018868,5,1,61
0.0145287989499919,5,1,62
-0.0153036788585548,5,1,63
-0.0568649447317983,5,1,64
-0.0515083276346378,5,1,65
-0.025434551992104,5,1,66
0.0104424732976905,5,1,67
0.0175023668633915,5,1,68
0.0061847607118047,5,1,69
-0.0299268065191041,5,1,70
-0.0319267775467948,5,1,71
-0.0325248148031532,5,1,72
-0.0409978177669498,5,1,73
0.0066685638060443,5,1,74
0.0074200009061738,5,1,75
0.0198480326771095,5,1,76
0.018002254619128,5,1,77
0.0205169120749233,5,1,78
-0.0154803188305506,5,1,79
-0.0224802231032077,5,1,80
0.0046159290368766,5,1,81
0.0066108158207168,5,1,82
0.0230583611363804,5,1,83
0.0214417861061884,5,1,84
0.0144499338797916,5,1,85
0.0219418554855983,5,1,86
0.0145701394954709,5,1,87
0.0191149783035909,5,1,88
0.0152416915572253,5,1,89
0.0069689608711565,5,1,90
-0.0036018107250854,5,1,91
0.0136304213859193,5,1,92
0.0314864799694502,5,1,93
0.0474097461521459,5,1,94
0.0484724484884603,5,1,95
0.0285276766739801,5,1,96
-0.0004289450962144,5,1,97
-0.0033988332066112,5,1,98
-0.0114281670928757,5,1,99
0.0144342384405361,5,1,100
0.0344187527432891,5,1,101
0.0487533217693879,5,1,102
0.0360011236364885,5,1,103
0.0337193777562185,5,1,104
-0.0046470379412645,5,1,105
-0.0232544201101289,5,1,106
-0.0294720412751658,5,1,107
0.0054703993386725,5,1,108
0.0250281558938758,5,1,109
0.0230659477719777,5,1,110
0.0125857617437196,5,1,111
0.0115064968306689,5,1,112
-0.0065411479664605,5,1,113
0.0010522283441444,5,1,114
-0.0079947485385904,5,1,115
-0.0088831744461708,5,1,116
-0.0026018081840206,5,1,117
-0.0065639532791707,5,1,118
0.0145931718377729,5,1,119
0.0195396240347319,5,1,120
-0.0024261261613422,5,1,121
-0.0219198579408052,5,1,122
-0.0329078702562643,5,1,123
-0.0382609551196566,5,1,124
-0.0293479061239327,5,1,125
-0.0063757630815851,5,1,126
-0.0126009481792601,5,1,127
0.0085971088298974,5,1,128
-0.0064433617131854,5,1,129
-0.0273517624684795,5,1,130
-0.0293739598834214,5,1,131
-0.0385919292160399,5,1,132
-0.0414111289506132,5,1,133
-0.0320256795170048,5,1,134
-0.0193897661297848,5,1,135
-0.0059734799554504,5,1,136
0.0114422942150818,5,1,137
0.0059014959162466,5,1,138
-0.0133304199761688,5,1,139
-0.0393055466529788,5,1,140
-0.0500595781867467,5,1,141
-0.0424636703668795,5,1,142
-0.0304268418440753,5,1,143
-0.0015263706432075,5,1,144
0.0124797077660719,5,1,145
0.010585870176386,5,1,146
-0.0170692226130237,5,1,147
-0.0438168812837681,5,1,148
-0.0279872901951203,5,1,149
-0.0305548157190253,5,1,150
0.0024728676204394,5,1,151
0.0065784550002032,5,1,152
0.0075178779712856,5,1,153
0.0008543210873115,5,1,154
0.0099500473112758,5,1,155
0.0193588388490704,5,1,156
-0.007480979590808,5,1,157
-0.0013235293424884,5,1,158
-0.013413123770086,5,1,159
0.0018993288415519,5,1,160
0.0324448581780462,5,1,161
0.0319787243321915,5,1,162
0.0235170332129133,5,1,163
0.0294411594003697,5,1,164
0.0045256613103213,5,1,165
-0.0089321583846451,5,1,166
-0.0067317587892421,5,1,167
0.017825205993867,5,1,168
0.0222610829219486,5,1,169
0.0326592951102733,5,1,170
0.0533567230582309,5,1,171
0.0297047618947445,5,1,172
0.0146102610076021,5,1,173
-0.0090526250843549,5,1,174
-0.0061393416024684,5,1,175
-0.0006547052244395,5,1,176
0.0206901106249877,5,1,177
0.0175850933602679,5,1,178
0.0525150409345052,5,1,179
0.0381148141776437,5,1,180
0.0101608725493777,5,1,181
0.0047819496046089,5,1,182
0.000284490717051,5,1,183
-0.0223593818046715,5,1,184
-0.0192548185991352,5,1,185
-0.0001306822385789,5,1,186
0.0109313329958983,5,1,187
0.0149912416413643,5,1,188
0.0236374431552252,5,1,189
-0.0056241443577823,5,1,190
0.0068265436789958,5,1,191
-0.0323085243720345,8,1,0
-0.0323085243720345,8,1,1
-0.0452928260805377,8,1,2
-0.0383790880193119,8,1,3
-0.0169289948051586,8,1,4
0.0027039367398795,8,1,5
-0.004027119512556,8,1,6
-0.0115485898575768,8,1,7
-0.0234726638792448,8,1,8
-0.0243541623214137,8,1,9
-0.0073849216063871,8,1,10
0.0081551463392456,8,1,11
-0.0114892977597725,8,1,12
-0.0113099989589641,8,1,13
-0.0113099989589641,8,1,14
-0.004026895560445,8,1,15
0.0240422885794641,8,1,16
0.0360932563604733,8,1,17
0.0315679337519868,8,1,18
0.0080544198472993,8,1,19
-0.0213467038653617,8,1,20
-0.0183208706825604,8,1,21
0.0005286004898014,8,1,22
0.0370599584222171,8,1,23
0.0430219256202798,8,1,24
0.0346496873892083,8,1,25
-0.0024374083644053,8,1,26
-0.0024374083644053,8,1,27
-0.0123621852694749,8,1,28
-0.0038705223333253,8,1,29
0.0075504746542362,8,1,30
0.0214340080907312,8,1,31
0.0190012718300395,8,1,32
0.0175872790949053,8,1,33
0.0186060226204627,8,1,34
-0.0013926689905089,8,1,35
-0.0039189087586434,8,1,36
-0.0049562758466289,8,1,37
0.0176807826023481,8,1,38
-0.0004527341677084,8,1,39
0.0206955511353912,8,1,40
0.0045733762667033,8,1,41
0.0094908156011966,8,1,42
0.0006449922455811,8,1,43
0.0077554209334332,8,1,44
0.0032150675920943,8,1,45
-0.0009151551082227,8,1,46
-0.0028850971748818,8,1,47
-0.0057764998033207,8,1,48
0.0086440607994564,8,1,49
0.0311239621889255,8,1,50
0.0165092586792467,8,1,51
0.0168747931043364,8,1,52
-0.0073547730481949,8,1,53
-0.0142648436291412,8,1,54
-0.0207940860859498,8,1,55
-0.0123398942267674,8,1,56
0.0275756349013366,8,1,57
0.0330864697607541,8,1,58
0.035664813201622,8,1,59
-0.010280302759704,8,1,60
-0.0217569215988711,8,1,61
-0.02532745283668,8,1,62
-0.0204288236913739,8,1,63
0.0247921817493476,8,1,64
0.0107184466054773,8,1,65
0.0105840782600345,8,1,66
0.0030849017236405,8,1,67
-0.0264658699029944,8,1,68
-0.0213539392916492,8,1,69
-0.0074299391542403,8,1,70
-0.0058886890821113,8,1,71
-0.0028030688960673,8,1,72
-0.0113025769059176,8,1,73
-0.0108808092930763,8,1,74
-0.0134888409461305,8,1,75
0.0047038034126199,8,1,76
-0.016548589701675,8,1,77
-0.0113398613561256,8,1,78
-0.0273308376882926,8,1,79
-0.0357895181854947,8,1,80
-0.0115191601569339,8,1,81
0.0004878476278569,8,1,82
0.0235383309446171,8,1,83
0.0156396778380895,8,1,84
0.0017413873879889,8,1,85
-0.0183768657876842,8,1,86
-0.0219362452832473,8,1,87
-0.0283162255213842,8,1,88
-0.0223917418420727,8,1,89
-0.0034597944866743,8,1,90
0.0114869899100896,8,1,91
0.0165539402989335,8,1,92
0.0115950762461628,8,1,93
-0.0013923703876943,8,1,94
-0.0134147199499362,8,1,95
-0.0194138720639354,8,1,96
-0.0103773866549387,8,1,97
0.0037262108860931,8,1,98
0.0181619141977781,8,1,99
0.0204788310247514,8,1,100
0.0024501188057907,8,1,101
-0.0136160733995573,8,1,102
0.0126962088622691,8,1,103
0.0145460916928692,8,1,104
0.034574720351706,8,1,105
0.0345823787986475,8,1,106
0.0086061169346995,8,1,107
0.0047638765768932,8,1,108
0.0095314813706535,8,1,109
0.0131174663619688,8,1,110
0.0276165495064723,8,1,111
0.0464248821215875,8,1,112
0.0450743065446236,8,1,113
-0.0115790342526643,8,1,114
0.0126290744566835,8,1,115
-0.0173693735386439,8,1,116
0.0127108538998192,8,1,117
0.0456040982846184,8,1,118
0.0430594589061667,8,1,119
0.0407166706486939,8,1,120
-0.0043923943489158,8,1,121
0.0117035607193222,8,1,122
-0.0083062577503273,8,1,123
-0.0028478002828898,8,1,124
0.0146211333810751,8,1,125
0.0135949180353353,8,1,126
-0.0072869170191407,8,1,127
0.0026666896150232,8,1,128
-0.0193389796771368,8,1,129
0.0166209502866797,8,1,130
-0.0013921464355834,8,1,131
0.0087075028411947,8,1,132
-0.010399105375585,8,1,133
0.0008011912877257,8,1,134
-0.0434716236776247,8,1,135
-0.0193166513090773,8,1,136
-0.01454842442612,8,1,137
0.0167328409626558,8,1,138
0.0061182343761113,8,1,139
-0.0221154213549492,8,1,140
-0.0283383050537648,8,1,141
-0.0383605391075875,8,1,142
-0.007384311958974,8,1,143
-0.0233169320930515,8,1,144
-0.0113697486368549,8,1,145
-0.0053251186289967,8,1,146
-0.0205410129701646,8,1,147
-0.0338008032550001,8,1,148
-0.0323945187339431,8,1,149
-0.0215255298783803,8,1,150
-0.0144516515754838,8,1,151
-0.0182644027896468,8,1,152
-0.0095267777461599,8,1,153
-0.0183615240102333,8,1,154
-0.0072875639919057,8,1,155
-0.0104745452008771,8,1,156
-0.0042279396542006,8,1,157
-0.00440031407332,8,1,158
-0.0029410922800056,8,1,159
-0.0064595198450812,8,1,160
0.0354329752656423,8,1,161
0.0536107257511637,8,1,162
0.0277247229350331,8,1,163
-0.0073550218838738,7,1,0
-0.0432332719388261,7,1,1
-0.0537996814927309,7,1,2
0.002487365930647,7,1,3
0.0055059636871608,7,1,4
0.0273070712696042,7,1,5
0.0334666384703429,7,1,6
0.0332380698775566,7,1,7
-0.0184880196324885,7,1,8
-0.0052884687097696,7,1,9
-0.0343457377039026,7,1,10
-0.022227162729518,7,1,11
0.0339555156052019,7,1,12
0.0404700508155407,7,1,13
0.0195387593423276,7,1,14
-0.0123571252580551,7,1,15
-0.0313683158299873,7,1,16
0.0350262383856533,7,1,17
0.0331084622006472,7,1,18
0.0197401998844363,7,1,19
0.0067262721726664,7,1,20
0.0095730305067703,7,1,21
0.0124197888408742,7,1,22
0.0501224467442802,7,1,23
0.0560733990597205,7,1,24
0.0505437664528996,7,1,25
-0.0005049249329293,7,1,26
-0.0104147084304986,7,1,27
-0.0387446116913506,7,1,28
-0.000489906641861,7,1,29
0.0563456058510754,7,1,30
0.0604649256448255,7,1,31
0.057775287044878,7,1,32
0.0076887344320694,7,1,33
-0.0422181212428445,7,1,34
-0.0343457625874705,7,1,35
-0.0097733602539612,7,1,36
0.0347393741149643,7,1,37
0.034492567655052,7,1,38
0.016994541295797,7,1,39
-0.0027878017693201,7,1,40
-0.0334055789289912,7,1,41
-0.003466980145826,7,1,42
-0.0039112876370537,7,1,43
0.0098159579760761,7,1,44
0.0065915056901375,7,1,45
-0.0274132143370575,7,1,46
-0.00919774393889,7,1,47
-0.0224135227716387,7,1,48
-0.0079033500938091,7,1,49
0.0144345493868435,7,1,50
0.0046964684520609,7,1,51
-0.0349867997194093,7,1,52
-0.0335766237659619,7,1,53
-0.0164963242857504,7,1,54
-0.0156680064196792,7,1,55
0.0014951532501379,7,1,56
-0.0031757657854737,7,1,57
-0.0111755559628177,7,1,58
-0.0213762925432765,7,1,59
-0.0266076727432677,7,1,60
-0.0173914281874568,7,1,61
-0.0153654785738899,7,1,62
-0.0212644765180041,7,1,63
-0.0084706502361229,7,1,64
0.0044949159338967,7,1,65
0.0041031724614081,7,1,66
-0.0383080497395519,7,1,67
-0.0293646448173439,7,1,68
-0.0255479648454388,7,1,69
-0.0063550138967999,7,1,70
0.0159051203022138,7,1,71
0.0126509300369532,7,1,72
0.0065994129727578,7,1,73
-0.0127057521382395,7,1,74
-0.0113249177157609,7,1,75
-0.0311441612245169,7,1,76
-0.0022135025946137,7,1,77
0.0175461405376586,7,1,78
0.0179154063406804,7,1,79
0.0265084178579734,7,1,80
0.0026815834882522,7,1,81
-0.0043551721076274,7,1,82
0.0226878340118938,7,1,83
0.0254183747751932,7,1,84
0.0356645643659431,7,1,85
0.0227474841555131,7,1,86
0.0164415768351677,7,1,87
-0.0044373496878493,7,1,88
0.000502492665407,7,1,89
0.0400035766994448,7,1,90
0.0543643005318435,7,1,91
0.0599724183550389,7,1,92
0.0435741950297413,7,1,93
0.0075543163194908,7,1,94
-0.0140781601006381,7,1,95
-0.0054450658890004,7,1,96
0.0266202836503816,7,1,97
0.0492752457270511,7,1,98
0.0465141955938253,7,1,99
0.0086517192463979,7,1,100
0.0051106149433125,7,1,101
0.0135093093687289,7,1,102
0.0251054026801098,7,1,103
0.0267472921516975,7,1,104
0.0256687865064653,7,1,105
-0.0024822392854993,7,1,106
0.0006964862709013,7,1,107
-0.000930173399291,7,1,108
0.0140914785007037,7,1,109
0.0134869561171015,7,1,110
0.0295452161562614,7,1,111
-0.0074220816387558,7,1,112
-0.0042357971696851,7,1,113
-0.0245776130182827,7,1,114
-0.0163506673384384,7,1,115
0.0124719796060951,7,1,116
0.0212996397452884,7,1,117
0.0250085302952021,7,1,118
0.0137034273920626,7,1,119
-0.0083995124220913,7,1,120
-0.0260253092529221,7,1,121
-0.0263573481044832,7,1,122
-0.0232341573072005,7,1,123
-0.0094224459828538,7,1,124
-0.0002430255312451,7,1,125
-0.0033626732660878,7,1,126
-0.0116754100920363,7,1,127
-0.0273310616404035,7,1,128
-0.0318271688244935,7,1,129
-0.0162124200023891,7,1,130
-0.0168916357042469,7,1,131
-0.0192571753504332,7,1,132
-0.0241670930976084,7,1,133
-0.0283011408741349,7,1,134
-0.0214659917108165,7,1,135
-0.0166383510781346,7,1,136
-0.0222787811726777,7,1,137
-0.0283387529579867,7,1,138
-0.0373679656153442,7,1,139
-0.0367287110342701,7,1,140
-0.0283610937678301,7,1,141
-0.0149253486760832,7,1,142
-0.0126607719157381,7,1,143
-0.0039635654947623,7,1,144
0.0005551562184177,7,1,145
-0.0053555035810837,7,1,146
-0.0300053499912168,7,1,147
-0.0354165600186255,7,1,148
-0.0354646976082648,7,1,149
-0.0014976726101478,7,1,150
0.0146364751585259,7,1,151
0.0218144115054819,7,1,152
0.0110169224015069,7,1,153
-0.0029748709931254,7,1,154
-0.0144180346055552,7,1,155
-0.0250996307509302,7,1,156
-0.0067542167476869,7,1,157
0.0145613837031842,7,1,158
0.0265866915640209,7,1,159
0.0189392176092693,7,1,160
0.0020734060661544,7,1,161
-0.0075640586640043,7,1,162
-0.0003406693067572,7,1,163
0.0275456480863356,7,1,164
0.0197099891173244,7,1,165
0.0186679020933468,7,1,166
0.0109681356360944,7,1,167
0.0139831530048164,7,1,168
0.0216205920849628,7,1,169
0.022557021170675,7,1,170
0.0357839641874534,7,1,171
-0.0014151964271114,7,1,172
-0.0014600273482055,7,1,173
-0.0080118718923202,7,1,174
-0.0095567147940251,7,1,175
0.0277546350993304,7,1,176
0.0120798456553449,10,1,0
0.0049682810864577,10,1,1
-0.0165425662505765,10,1,2
-0.0645680528232372,10,1,3
-0.0627295943159489,10,1,4
-0.0576913188574128,10,1,5
-0.0089289789249909,10,1,6
0.0200204824397382,10,1,7
-0.0050118863888939,10,1,8
-0.0377227744989677,10,1,9
-0.0393645518561384,10,1,10
-0.0348153429694807,10,1,11
0.0103645647075417,10,1,12
0.0221653656672976,10,1,13
-0.0109162966972867,10,1,14
-0.0235564902216076,10,1,15
-0.0625609209523759,10,1,16
-0.0159698416201891,10,1,17
0.0472175821706109,10,1,18
0.0564507216630038,10,1,19
0.0147042363589855,10,1,20
-0.0285028636651139,10,1,21
-0.04772313738025,10,1,22
-0.0376699508421041,10,1,23
0.0351724741326749,10,1,24
0.0468088013080847,10,1,25
0.0634987047414035,10,1,26
-0.0011038425499348,10,1,27
-0.0145031868519922,10,1,28
-0.0256786872583499,10,1,29
-0.0357004215333181,10,1,30
0.0294932037593265,10,1,31
0.036889508916801,10,1,32
0.0305276838593325,10,1,33
0.0015641134027484,10,1,34
-0.0104348977994843,10,1,35
-0.0227550556556621,10,1,36
-0.0088708153693828,10,1,37
0.0122581733322163,10,1,38
0.0126738441184806,10,1,39
0.0140744931793799,10,1,40
0.0153794028730573,10,1,41
-0.0119385164171166,10,1,42
0.0144942513951257,10,1,43
-0.0085955225041604,10,1,44
0.000210469966349,10,1,45
0.00852902676441,10,1,46
0.0093953803565492,10,1,47
-0.001702765388512,10,1,48
0.0075179961097736,10,1,49
-0.0065954645107228,10,1,50
-0.0085574163339164,10,1,51
0.012855879522488,10,1,52
0.0305850132475848,10,1,53
0.0140784277503644,10,1,54
-0.0124198737358315,10,1,55
-0.0265791881450507,10,1,56
-0.0486228605166128,10,1,57
-0.0081984585807977,10,1,58
0.0345427603798079,10,1,59
0.0424543929873637,10,1,60
0.0443780320503799,10,1,61
-0.00967958437394,10,1,62
-0.0435855329413009,10,1,63
-0.0590648704362944,10,1,64
-0.0125191223418221,10,1,65
0.0188644344568317,10,1,66
0.0273140297524535,10,1,67
0.0253332314340714,10,1,68
-0.0175944953256329,10,1,69
-0.0286096532996497,10,1,70
-0.0249201559564698,10,1,71
0.00898701267389,10,1,72
0.0245009765270975,10,1,73
0.020401721305373,10,1,74
-0.0124423145362318,10,1,75
-0.0455551108594829,10,1,76
-0.0705685116694362,10,1,77
-0.0282632841813547,10,1,78
0.0317830725449813,10,1,79
0.0327373610110172,10,1,80
0.0101362757256477,10,1,81
0.0027237556908665,10,1,82
-0.067430960531904,10,1,83
-0.0437585416094322,10,1,84
-0.0085957533987919,10,1,85
0.0192573030156349,10,1,86
0.0241888092574348,10,1,87
0.0195012933327665,10,1,88
-0.0106488416390267,10,1,89
-0.0205868103926126,10,1,90
-0.0335865432754587,10,1,91
-0.0175531229636009,10,1,92
0.0154674432311967,10,1,93
0.0435608105911003,10,1,94
0.020417508198707,10,1,95
0.0324854459122121,10,1,96
0.0047620946743069,10,1,97
-0.0132098985860329,10,1,98
-0.0091911062368555,10,1,99
-0.0126721667925984,10,1,100
0.022371274918857,10,1,101
0.0033579508704243,10,1,102
0.0375001139448413,10,1,103
0.0067773707441105,10,1,104
0.0148530494603603,10,1,105
0.0264513676843183,10,1,106
0.0423546825921101,10,1,107
0.0355157456259455,10,1,108
0.0335920458011842,10,1,109
-0.0018837404174044,10,1,110
-0.0121982967709922,10,1,111
0.0177155264749526,10,1,112
0.0431867916708956,10,1,113
0.0572170768732537,10,1,114
0.0697344613066232,10,1,115
0.0013883972569403,10,1,116
-0.0128878390925081,10,1,117
-0.0170531327699396,10,1,118
0.0124714487925621,10,1,119
0.0363939758451323,10,1,120
0.0644676703501135,10,1,121
0.0574081356373403,10,1,122
0.0107596375057308,10,1,123
-0.0300177583226511,10,1,124
-0.0230945415495465,10,1,125
-0.009701944486449,10,1,126
0.0386681843829837,10,1,127
0.0195853505105254,10,1,128
0.0197233979706545,10,1,129
-0.004850149073795,10,1,130
-0.0151178479745073,10,1,131
0.0009343945278409,10,1,132
0.0154637517071928,10,1,133
0.0026325828167784,10,1,134
-0.0025654517613453,10,1,135
-0.0195083429848177,10,1,136
-0.0301434965413728,10,1,137
-0.0155528875551331,10,1,138
-0.0014435753776983,10,1,139
0.0074947046449414,10,1,140
0.0244786572501876,10,1,141
-0.0024586135174134,10,1,142
-0.0495127121635176,10,1,143
-0.0431466122692919,10,1,144
-0.016694346857054,10,1,145
-0.007741118453163,10,1,146
0.0086250334833107,10,1,147
0.0115861393340932,10,1,148
-0.0122289246901034,10,1,149
-0.0350901081616544,10,1,150
-0.0354410856943162,10,1,151
-0.0122900113787461,10,1,152
0.0134104325723266,10,1,153
-0.005232001315011,10,1,154
-0.0240716353864535,10,1,155
-0.0157173784305358,10,1,156
0.01145549922667,10,1,157
-0.0100918987799328,10,1,158
-0.0077102495027385,10,1,159
0.000426741782144,10,1,160
0.0254784188952278,10,1,161
0.0153185763983854,10,1,162
-0.0045580294879828,10,1,163
0.0532171485334724,10,1,164
0.0529979377092796,10,1,165
-0.0181217358598089,9,1,0
-0.0375172831141476,9,1,1
-0.0344335035167031,9,1,2
0.0035065138945099,9,1,3
0.0264286595322395,9,1,4
0.0137310150961759,9,1,5
-0.0115725853811633,9,1,6
-0.0108740736708229,9,1,7
-0.0035121223978433,9,1,8
0.0174751151672737,9,1,9
0.0318823089986228,9,1,10
0.0292332116934771,9,1,11
0.0013693563241673,9,1,12
-0.009648885556402,9,1,13
-0.0178811371448542,9,1,14
0.0024112923862753,9,1,15
0.0431678236522168,9,1,16
0.0284513041542656,9,1,17
0.0001403673146013,9,1,18
-0.0455398343648081,9,1,19
-0.0201102331872736,9,1,20
0.0192726077019065,9,1,21
0.0462707535535755,9,1,22
0.0593156596935987,9,1,23
0.0199215254901243,9,1,24
-0.0076569397519139,9,1,25
-0.0060501066222999,9,1,26
0.004056134467341,9,1,27
0.0014226053132469,9,1,28
0.0308366084984167,9,1,29
0.028932229110456,9,1,30
0.0270585728447314,9,1,31
0.0094490182207976,9,1,32
-0.0061950996458718,9,1,33
-0.011183210021881,9,1,34
-0.0146562434551176,9,1,35
-0.0018824109832641,9,1,36
-0.0113053560954944,9,1,37
0.0048995004033737,9,1,38
-0.0047599435901454,9,1,39
-0.0020309181158098,9,1,40
0.0084758020800285,9,1,41
0.00947941322961,9,1,42
-0.0163356894979674,9,1,43
-0.0339296881231985,9,1,44
-0.0459974800085153,9,1,45
-0.0235907347349613,9,1,46
0.0048348365765096,9,1,47
0.046446651984619,9,1,48
0.046446651984619,9,1,49
-0.0134349604849427,9,1,50
-0.0510048743642779,9,1,51
-0.058038762846608,9,1,52
-0.0039393851850871,9,1,53
0.0259173274148877,9,1,54
0.0064414631161902,9,1,55
-0.0095227633327166,9,1,56
-0.0305175297740299,9,1,57
-0.0430435870728543,9,1,58
-0.0325023598821888,9,1,59
0.0102808964049517,9,1,60
0.0102808964049517,9,1,61
-0.0074544593595522,9,1,62
-0.0185107831056675,9,1,63
-0.0291438150925705,9,1,64
0.0094147372503969,9,1,65
0.0040370084681249,9,1,66
-0.0003979842486335,9,1,67
-0.0285332465215773,9,1,68
-0.0331208218998491,9,1,69
-0.0110762259497608,9,1,70
0.0198833099487391,9,1,71
0.0334205072733411,9,1,72
0.0264096064471175,9,1,73
0.0194100475445842,9,1,74
-0.0075193783857459,9,1,75
-0.0195262101205515,9,1,76
-0.005550310866223,9,1,77
0.0279362683605609,9,1,78
0.0504383884308661,9,1,79
0.0334551406618636,9,1,80
0.0043499405922878,9,1,81
-0.0006956206954639,9,1,82
-0.0066264671369865,9,1,83
-0.0075117522907575,9,1,84
0.0315198315617333,9,1,85
0.0473010560356164,9,1,86
0.0483050196033197,9,1,87
0.0358059695980295,9,1,88
0.0010028714021992,9,1,89
0.0242872028204416,9,1,90
0.0288442859711087,9,1,91
0.0353555490217928,9,1,92
0.0243713086075966,9,1,93
0.0044419398261097,9,1,94
0.0074644190072703,9,1,95
0.0194138119826823,9,1,96
0.0414313763345384,9,1,97
0.034466159164151,9,1,98
0.0164864159418963,9,1,99
-0.0286475407276112,9,1,100
-0.0215374763618402,9,1,101
0.0264325941032239,9,1,102
0.0398553149365566,9,1,103
0.0395079438614557,9,1,104
-0.0185873114072302,9,1,105
-0.0432801731806899,9,1,106
-0.0539130593394046,9,1,107
-0.0374409006407732,9,1,108
0.0543695049923749,9,1,109
0.053094766443187,9,1,110
0.0207537126050444,9,1,111
-0.0284185634403745,9,1,112
-0.062565122875039,9,1,113
-0.0223884683928613,9,1,114
0.0005107260458088,9,1,115
0.0284245642124101,9,1,116
-0.001382104828528,9,1,117
-0.0275560958098237,9,1,118
-0.0405131195722448,9,1,119
-0.0330556962837219,9,1,120
-0.0193962262399758,9,1,121
-0.0004931889124983,9,1,122
0.0023730768448901,9,1,123
-0.0442650229015259,9,1,124
-0.0674235531791981,9,1,125
-0.0327005532854442,9,1,126
-0.0078478108689065,9,1,127
0.0052887420868168,9,1,128
0.0169599335453807,9,1,129
-0.0314339026205078,9,1,130
-0.0483867189236508,9,1,131
-0.055989281063934,9,1,132
-0.0446389446029385,9,1,133
-0.0126372782047463,9,1,134
0.0059262936466462,9,1,135
0.0054760067462488,9,1,136
-0.0035806964909938,9,1,137
-0.0216787170996631,9,1,138
-0.0393875030551978,9,1,139
-0.0393875030551978,9,1,140
-0.0136144046118018,9,1,141
0.0014571171782791,9,1,142
0.0085674002863326,9,1,143
0.0423321445729176,9,1,144
0.0287987116864137,9,1,145
0.0083803179121361,9,1,146
-0.0086262213216985,9,1,147
-0.0155455968557122,9,1,148
-0.0069851072216838,9,1,149
0.0145094063663103,9,1,150
0.0372333221437373,9,1,151
0.0392712432604384,9,1,152
0.0033576835187457,9,1,153
0.0029455513979884,9,1,154
-0.0024815404117747,9,1,155
0.042209640959142,9,1,156
0.0215016672872789,9,1,157
0.0124791721063428,9,1,158
0.0004456004296816,9,1,159
0.0011362014189656,9,1,160
0.0078076610738024,9,1,161
0.0435229474678369,9,1,162
0.0462783188868188,9,1,163
0.0233639208675679,9,1,164
0.0112498863183597,9,1,165
-0.0085270577821511,9,1,166
-0.0109886595332334,9,1,167
-0.0034586182094342,9,1,168
0.017341403305647,9,1,169
0.0380649937379579,9,1,170
0.0397024284663177,9,1,171
0.0334129297877488,9,1,172
0.0010984041794878,9,1,173
-0.0209497617711141,9,1,174
-0.0326627873809729,9,1,175
-0.0363018283042636,12,1,0
-0.0285282561350617,12,1,1
-0.0113555166885933,12,1,2
-0.0035073708329897,12,1,3
-0.0135892571316342,12,1,4
-0.0056044963329469,12,1,5
-0.0183707197349806,12,1,6
-0.0163558476703143,12,1,7
-0.0253589490303628,12,1,8
-0.0082893184145387,12,1,9
-0.0194007573507253,12,1,10
-0.0104801105144906,12,1,11
-0.0135666792056961,12,1,12
0.0033193397972167,12,1,13
-0.0035966979394081,12,1,14
-0.0012592526773122,12,1,15
0.0263401210955683,12,1,16
0.0159464882949149,12,1,17
0.0185887128465219,12,1,18
-0.0113599006849236,12,1,19
0.0006656625457008,12,1,20
0.014623371256235,12,1,21
0.0323100926307458,12,1,22
0.0291323199266188,12,1,23
0.0075971453934531,12,1,24
-0.0220319590859378,12,1,25
-0.0279829796523621,12,1,26
-0.0084393411138539,12,1,27
0.0251978259596695,12,1,28
0.0485270132857718,12,1,29
0.0264681691345144,12,1,30
0.0080597071201326,12,1,31
-0.0013494224362251,12,1,32
-0.0274300470782466,12,1,33
-0.0200474038397819,12,1,34
-0.0126647606013174,12,1,35
0.0243709371759274,12,1,36
0.0290473514517901,12,1,37
0.0185929785554858,12,1,38
-0.0020259362517998,12,1,39
-0.0054390076772235,12,1,40
-0.0073794361715913,12,1,41
0.0241603359342793,12,1,42
0.0095560635358449,12,1,43
-0.0074991183949227,12,1,44
-0.0003792141034095,12,1,45
-0.0040294542954455,12,1,46
0.0134472454455128,12,1,47
0.0198925793937771,12,1,48
0.0157886516816123,12,1,49
0.0012447408592561,12,1,50
-0.0087506736100802,12,1,51
-0.0030558253865452,12,1,52
0.0164615071027872,12,1,53
0.0265438310646876,12,1,54
0.0076502057402148,12,1,55
0.0067555292214694,12,1,56
-0.0243248349654407,12,1,57
-0.0178814170021886,12,1,58
-0.0114379990389366,12,1,59
0.0141797250120987,12,1,60
0.0237018506567772,12,1,61
0.0056089513613757,12,1,62
-0.0283359593306463,12,1,63
-0.0445796053332079,12,1,64
-0.0114911025315888,12,1,65
0.0155404955848155,12,1,66
0.0196868982458637,12,1,67
0.0137024188819465,12,1,68
-0.0284454585778851,12,1,69
-0.0563900336012725,12,1,70
-0.0533685653445749,12,1,71
0.0099883557589605,12,1,72
0.0295812502559958,12,1,73
0.0066651938602434,12,1,74
-0.0112279654565864,12,1,75
-0.0264190787186217,12,1,76
-0.0555405177818913,12,1,77
-0.0217466776992582,12,1,78
0.0135970552275684,12,1,79
0.0290957675700153,12,1,80
0.0165063554075107,12,1,81
-0.0182272175683631,12,1,82
-0.0595188527401049,12,1,83
-0.0465190756999072,12,1,84
-0.0112684383109479,12,1,85
0.0315769229484393,12,1,86
0.0251337927047071,12,1,87
0.0106499004250663,12,1,88
0.0080862195504085,12,1,89
-0.03467041428971,12,1,90
-0.0184158519293837,12,1,91
0.0012569700681317,12,1,92
0.0266451655848348,12,1,93
0.0286261885036989,12,1,94
0.0045897118160293,12,1,95
-0.0066045010198605,12,1,96
-0.0177242821141885,12,1,97
-0.000935847200377,12,1,98
0.0210475741886873,12,1,99
0.0356482196299367,12,1,100
0.0447907940223719,12,1,101
0.0295770200332419,12,1,102
0.0126199714999557,12,1,103
-0.009529397272314,12,1,104
-0.0041209763345915,12,1,105
0.0240963828872261,12,1,106
0.0374897695164142,12,1,107
0.0444599349982917,12,1,108
0.0573382791621342,12,1,109
0.0045225813037838,12,1,110
-0.0054040560043228,12,1,111
0.0006807026675896,12,1,112
0.0331634846092744,12,1,113
0.0636239158259267,12,1,114
0.0495307395597635,12,1,115
0.0655332586339019,12,1,116
0.0180254316940008,12,1,117
-0.0214152903249411,12,1,118
-0.0088825142085243,12,1,119
0.0085218666697662,12,1,120
0.0476177697946034,12,1,121
0.0394822410861921,12,1,122
0.0105224674804259,12,1,123
-0.0110100603923746,12,1,124
-0.0177990491093716,12,1,125
7.183982867292371e-05,12,1,126
0.0173486813036932,12,1,127
0.0215290159117002,12,1,128
0.0123186249402941,12,1,129
-0.0352188841153336,12,1,130
-0.0396772763892831,12,1,131
-0.0254339485512838,12,1,132
-0.0023863827617135,12,1,133
0.0163559305311494,12,1,134
0.0367312347912866,12,1,135
0.000627973525454,12,1,136
-0.0276406193698442,12,1,137
-0.0484249334955373,12,1,138
-0.0199682095823171,12,1,139
-0.0026356034448085,12,1,140
0.0186728352222029,12,1,141
-0.0073749102304212,12,1,142
-0.0467421952266049,12,1,143
-0.042474350592369,12,1,144
-0.0255734215836704,12,1,145
0.0056354874491249,12,1,146
0.0165514166294938,12,1,147
0.0037936063580213,12,1,148
-0.0359333235258881,12,1,149
-0.0325503796591885,12,1,150
-0.0266333738408796,12,1,151
0.0006960030216846,12,1,152
0.0386856861361915,12,1,153
-0.0054771816756729,12,1,154
-0.0280054156334605,12,1,155
-0.0141340246394421,12,1,156
0.029593379542401,12,1,157
-0.0006049933627912,12,1,158
0.0192877731508199,12,1,159
0.044592361602334,12,1,160
0.0030979049989604,11,1,0
-0.0019885192924958,11,1,1
-0.0155214380977538,11,1,2
-0.0205131903466005,11,1,3
-0.0073791049669652,11,1,4
-0.0114011693474088,11,1,5
0.0106574855440623,11,1,6
0.0328188680147008,11,1,7
0.0409787039605342,11,1,8
0.0135821215643095,11,1,9
-0.004311416272093,11,1,10
-0.0372944607894409,11,1,11
-0.0474814859964672,11,1,12
0.0046352935024249,11,1,13
0.0305332473992328,11,1,14
0.047546006882558,11,1,15
0.0289531407299097,11,1,16
0.0115671548697499,11,1,17
-0.0136267687208314,11,1,18
-0.016235290120471,11,1,19
0.006930798920979,11,1,20
0.0289944448786048,11,1,21
0.0384223479726662,11,1,22
0.0443090133149912,11,1,23
0.0007034698533141,11,1,24
-0.0073714015606028,11,1,25
-0.0093336509417633,11,1,26
0.0403131858132563,11,1,27
0.0520606067748289,11,1,28
0.025731573583546,11,1,29
-0.0001162426307202,11,1,30
-0.0253398916029798,11,1,31
-0.0096573506813669,11,1,32
0.0153988135553197,11,1,33
0.0609396419152157,11,1,34
0.0504478757170807,11,1,35
0.0474064273915416,11,1,36
-0.0282343290920829,11,1,37
-0.0373019512785437,11,1,38
-0.0673594844491324,11,1,39
-0.005551999822632,11,1,40
0.0543799241121878,11,1,41
0.0456589935970514,11,1,42
0.0257997805108264,11,1,43
-0.0131679326302249,11,1,44
-0.0614726889907042,11,1,45
-0.0282472284899524,11,1,46
0.0085109148257916,11,1,47
0.0117664335275923,11,1,48
0.021799690790752,11,1,49
-0.0361962753900991,11,1,50
-0.0395421294531258,11,1,51
-0.0164305159866091,11,1,52
0.0051792716620803,11,1,53
0.0121574807456961,11,1,54
-0.0047550033725461,11,1,55
-0.016258140107352,11,1,56
-0.0523004601890107,11,1,57
-0.0422410098714646,11,1,58
-0.0214605171492373,11,1,59
0.0183938773286931,11,1,60
0.0221116975249672,11,1,61
0.0129056036997398,11,1,62
-0.0312569092500253,11,1,63
-0.0562174211472824,11,1,64
-0.0540977609873387,11,1,65
-0.0040521150225402,11,1,66
0.0455123139652416,11,1,67
0.0476702268757962,11,1,68
0.0278969296682569,11,1,69
-0.0223324343680827,11,1,70
-0.0595109837314294,11,1,71
-0.0589543772243984,11,1,72
-0.0094276724038574,11,1,73
0.031039456330732,11,1,74
0.0471361861267508,11,1,75
0.0077479251319137,11,1,76
-0.0325803534443363,11,1,77
-0.0240245607718189,11,1,78
0.004631465456717,11,1,79
0.0258066322481502,11,1,80
0.0416329592260602,11,1,81
0.0426064396539612,11,1,82
-0.0255431757375798,11,1,83
-0.0071985916287752,11,1,84
0.0079469357778083,11,1,85
0.0392345895760761,11,1,86
0.0477187731101245,11,1,87
0.0099770490528864,11,1,88
0.0094090881856188,11,1,89
0.0050037273083805,11,1,90
0.0300132704181686,11,1,91
0.0594281744051948,11,1,92
0.0746006442456297,11,1,93
0.0400390135347521,11,1,94
-0.0114165051877138,11,1,95
-0.0295017365629628,11,1,96
-0.0119124902256763,11,1,97
0.0416328764249036,11,1,98
0.0730366368532595,11,1,99
0.056609730050891,11,1,100
-0.0006239088453345,11,1,101
-0.0323923105201481,11,1,102
-0.0263289799321287,11,1,103
0.0031918554886347,11,1,104
0.0206644078079957,11,1,105
0.0309830292589915,11,1,106
0.0344605978533542,11,1,107
-0.0055708246181943,11,1,108
-0.0138895786402027,11,1,109
-0.0183781629091368,11,1,110
0.0041466924949353,11,1,111
0.0194424045924618,11,1,112
-0.0203252183948322,11,1,113
-0.029381060725753,11,1,114
-0.0318845574553822,11,1,115
-0.0133745361748571,11,1,116
-0.0014168604956234,11,1,117
0.0103414655533478,11,1,118
-0.0073563969249239,11,1,119
-0.0258361841880951,11,1,120
-0.0507442863191061,11,1,121
-0.038248848303749,11,1,122
4.55639731299588e-05,11,1,123
0.0286036697214439,11,1,124
-0.0039692819791537,11,1,125
-0.0577476030513237,11,1,126
-0.0787687061804739,11,1,127
-0.0578942235394503,11,1,128
-0.0424517608376941,11,1,129
-0.014547780238803,11,1,130
0.0274459152713793,11,1,131
-0.0177690516667505,11,1,132
-0.0478120533511263,11,1,133
-0.052394576280998,11,1,134
-0.035937151571596,11,1,135
-0.0049994260535281,11,1,136
-0.0243404310379519,11,1,137
-0.031850909398103,11,1,138
-0.0403314896324398,11,1,139
-0.0314298529086415,11,1,140
-0.0215581143106575,11,1,141
0.0113340270661053,11,1,142
0.0039286244216577,11,1,143
-0.0037890016050111,11,1,144
-0.0213177917363263,11,1,145
-0.023381541239947,11,1,146
-0.0111494059019053,11,1,147
0.0314077008769012,11,1,148
0.0216492422569174,11,1,149
0.0066201208095236,11,1,150
-0.0184008236362315,11,1,151
-0.0194345118666344,11,1,152
-0.014634121952008,11,1,153
-0.0015938569459438,11,1,154
0.0356261503396744,11,1,155
0.0410876117709407,11,1,156
0.0176420878822595,11,1,157
-0.0059806098877916,11,1,158
-0.0120855166854489,11,1,159
0.0124880481003551,11,1,160
0.0335956822024968,11,1,161
0.0240925311840449,11,1,162
0.0210777608910947,11,1,163
0.0134203426669276,11,1,164
-0.0007254562827413,11,1,165
0.0145293143079309,11,1,166
0.0304828849706949,11,1,167
0.0325619229996741,11,1,168
0.028535782170053,11,1,169
0.0095033225649726,11,1,170
-0.0095103753311408,11,1,171
-0.0144986543963789,11,1,172
0.025524733464181,11,1,173
0.0331032768067726,11,1,174
0.0250549533093415,11,1,175
-0.0090029889572111,11,1,176
-0.0224081199557292,11,1,177
-0.0234906383101399,11,1,178
-0.001514993893105,11,1,179
0.0326447560430606,11,1,180
0.0340242410097977,11,1,181
0.0109656760613062,11,1,182
0.0221758207274032,14,1,0
0.0123913397154755,14,1,1
-0.0365718389898641,14,1,2
-0.0750908585541519,14,1,3
-0.04712770656126,14,1,4
-0.0125612523161797,14,1,5
0.0103685740625892,14,1,6
0.0383579459504934,14,1,7
0.0283555489792368,14,1,8
-0.0220907576377139,14,1,9
-0.0616070466586802,14,1,10
-0.0416357907990234,14,1,11
0.0229138397114687,14,1,12
0.0544888323112924,14,1,13
0.0573108760857795,14,1,14
-0.0163218420339418,14,1,15
-0.0567267014513556,14,1,16
-0.0196447644059346,14,1,17
0.0284438016863818,14,1,18
0.0442506728328085,14,1,19
0.0806094928596395,14,1,20
0.0153141204122314,14,1,21
-0.0541193010762568,14,1,22
-0.0377779327211108,14,1,23
-0.0157603515589302,14,1,24
0.0341060434602949,14,1,25
0.0793707915835632,14,1,26
0.0503504019032875,14,1,27
0.0011486081911898,14,1,28
-0.0440701889640968,14,1,29
-0.0212446604487713,14,1,30
-0.0028685618578075,14,1,31
0.0176950972598059,14,1,32
0.0622726177076868,14,1,33
0.0355974038085647,14,1,34
0.0011178650731654,14,1,35
-0.0312666866122652,14,1,36
-0.0389122668494514,14,1,37
-0.000608008558332,14,1,38
0.0244215990826057,14,1,39
0.0405582909242003,14,1,40
0.0284927406721015,14,1,41
-0.0006690136534621,14,1,42
-0.0082107232803408,14,1,43
-0.0046919437423073,14,1,44
-0.0061494960123414,14,1,45
0.0056303301330442,14,1,46
0.0075953398526596,14,1,47
0.0124248494052728,14,1,48
-0.0002343411238297,14,1,49
-0.000699914585708,14,1,50
-0.0177060207708596,14,1,51
0.0134298604538039,14,1,52
0.0205831161545253,14,1,53
0.0218906562944294,14,1,54
-0.0020654107123994,14,1,55
-0.0276094591166832,14,1,56
-0.039642794434942,14,1,57
-0.0406276051712204,14,1,58
0.0105377381942708,14,1,59
0.0434892558624541,14,1,60
0.0367846764621061,14,1,61
-0.0120915636387884,14,1,62
-0.041750817675519,14,1,63
-0.0604265747585388,14,1,64
-0.0475121030088144,14,1,65
0.0044996724196988,14,1,66
0.0320977337294705,14,1,67
0.0163489762829467,14,1,68
-0.0306898204257968,14,1,69
-0.0567187481574987,14,1,70
-0.073541203951247,14,1,71
-0.0226060529073317,14,1,72
-0.0085916511657769,14,1,73
0.0184269160554438,14,1,74
-0.0171525987602083,14,1,75
-0.0346515260192529,14,1,76
-0.072602427060331,14,1,77
-0.0445892992172944,14,1,78
-0.0086836726669734,14,1,79
0.0169912244196124,14,1,80
0.0048306244549903,14,1,81
-0.0360898763501855,14,1,82
-0.0625804008968371,14,1,83
-0.0525120406560476,14,1,84
-0.0306895779307737,14,1,85
0.0404428021524226,14,1,86
0.0263851562320424,14,1,87
-0.0066456586271501,14,1,88
-0.0267516282924501,14,1,89
-0.0475275938907745,14,1,90
-0.025782585575301,14,1,91
0.0044917422206059,14,1,92
0.0240495919700534,14,1,93
0.0303400493225049,14,1,94
0.0068839099765147,14,1,95
-0.0105147999924534,14,1,96
-0.0435967199452719,14,1,97
0.0063607191499502,14,1,98
0.0013074987538027,14,1,99
0.0243188808105435,14,1,100
0.0318093236804475,14,1,101
0.0282671577035073,14,1,102
0.0003234385973577,14,1,103
-0.0235680892159519,14,1,104
-0.007599210462339,14,1,105
0.0176756567759146,14,1,106
0.0408739945725547,14,1,107
0.0298441638448654,14,1,108
0.0192139894990496,14,1,109
0.0035918311031748,14,1,110
-0.018690831507138,14,1,111
0.0003155314930289,14,1,112
0.0279519812844941,14,1,113
0.0518772589837702,14,1,114
0.0584651627330548,14,1,115
0.0104759363297791,14,1,116
-0.0124837055273229,14,1,117
-0.0297129283412293,14,1,118
0.0023358654482219,14,1,119
0.0389090541372316,14,1,120
0.0414585369157109,14,1,121
0.0414736467340633,14,1,122
-0.0115603502340747,14,1,123
-0.0226597860041459,14,1,124
-0.0235905403169126,14,1,125
0.0273636856449015,14,1,126
0.0449890616364169,14,1,127
0.0556265657174589,14,1,128
-0.0075071427716143,14,1,129
-0.0314130067286791,14,1,130
-0.0485890276253456,14,1,131
-0.019990626206062,14,1,132
0.0289018491075389,14,1,133
0.0340129986476879,14,1,134
0.0235450628566993,14,1,135
-0.0134761693255249,14,1,136
-0.0435275190612617,14,1,137
-0.0495043141509163,14,1,138
-0.0142246312402625,14,1,139
0.0140181254014834,14,1,140
0.004484250822031,14,1,141
-0.0004615611173982,14,1,142
-0.0425510542298301,14,1,143
-0.0388121765805775,14,1,144
-0.0207034739091338,14,1,145
0.0054918013438213,14,1,146
-0.0009962084420841,14,1,147
-0.0074613629686571,14,1,148
-0.0125145487226585,14,1,149
-0.0515119699854502,14,1,150
0.0062882113671705,14,1,151
-0.0144529112941257,14,1,152
-0.0545270031310436,14,1,153
-0.0409919746183585,14,1,154
0.0249942461271226,14,1,155
0.0495732400085679,14,1,156
-0.0269416661314592,14,1,157
0.0104144577919849,14,1,158
0.0193218713984318,14,1,159
0.0313673676051171,14,1,160
0.0215446443783353,14,1,161
-0.0017844922641628,14,1,162
0.0057419689757787,14,1,163
0.0047728685217194,13,1,0
0.0062150107414677,13,1,1
-0.0096837664323349,13,1,2
-0.0064383562070529,13,1,3
-0.0044844719606067,13,1,4
0.0122724054763437,13,1,5
0.019718036123423,13,1,6
0.0263365405730201,13,1,7
-0.00162278488891,13,1,8
0.0035457741630483,13,1,9
-0.0005923791077873,13,1,10
0.0017126652855635,13,1,11
0.0103031304252485,13,1,12
0.0057842340270894,13,1,13
0.004353663779283,13,1,14
0.0064532256411928,13,1,15
0.0174218896104033,13,1,16
0.0233471792971875,13,1,17
0.0113492118464442,13,1,18
-0.0036651797340336,13,1,19
-0.0167372320961157,13,1,20
0.0054610620749242,13,1,21
-0.0024538877333207,13,1,22
0.0205216376167311,13,1,23
0.0451431964781032,13,1,24
0.0382474961847929,13,1,25
0.0189525154849376,13,1,26
0.0074839778437771,13,1,27
-0.0134377654473219,13,1,28
0.0103531640123035,13,1,29
0.0129965672598248,13,1,30
0.0228100848782989,13,1,31
0.0223332743185583,13,1,32
0.0203449243495643,13,1,33
0.016344964993872,13,1,34
0.0114226665145521,13,1,35
0.0273825296151593,13,1,36
0.0024330813697572,13,1,37
-0.0115799216894017,13,1,38
-0.0120876562761523,13,1,39
-0.0025308109635468,13,1,40
0.0124456039918639,13,1,41
0.0314361065938452,13,1,42
0.0148338066482263,13,1,43
-0.0100568911398808,13,1,44
-0.029924957684771,13,1,45
-0.0342826778872515,13,1,46
-0.0325743921635396,13,1,47
0.0005071120835251,13,1,48
0.0082766999047491,13,1,49
0.0013886411259804,13,1,50
-0.0110760020862309,13,1,51
-0.0125567444896769,13,1,52
-0.0076300074681464,13,1,53
-0.0115223389668616,13,1,54
-0.0084765780997531,13,1,55
-0.0310440203314104,13,1,56
-0.0281095983784204,13,1,57
-0.0161217310838035,13,1,58
-0.0155985979941492,13,1,59
0.0064918373722726,13,1,60
0.0154220254063777,13,1,61
-0.0096146117378529,13,1,62
-0.0344746164465912,13,1,63
-0.0385128180171376,13,1,64
-0.0200640153378992,13,1,65
-0.0114991719282138,13,1,66
0.0024073479139588,13,1,67
0.0162991851909148,13,1,68
-0.0036265564555718,13,1,69
-0.0245713051219702,13,1,70
-0.0331285532066422,13,1,71
-0.0287520467708141,13,1,72
-0.0126298065467951,13,1,73
-0.0155298128158929,13,1,74
0.0083918191603011,13,1,75
0.0132721874623898,13,1,76
0.0093070941384898,13,1,77
0.0019652070805155,13,1,78
-0.001600033556016,13,1,79
-0.018552522118174,13,1,80
-0.0085533165718664,13,1,81
0.0018537295978125,13,1,82
0.0188641703987362,13,1,83
0.0253789889961385,13,1,84
0.0284595697055111,13,1,85
0.0182604607586248,13,1,86
0.0264212785285185,13,1,87
0.0264367463157145,13,1,88
0.0078647556132466,13,1,89
0.0043765190386154,13,1,90
0.0043496178480622,13,1,91
0.004369131566479,13,1,92
0.0493580073893778,13,1,93
0.0493735675556302,13,1,94
0.0492813151067927,13,1,95
0.0262981828843454,13,1,96
0.0009574025163201,13,1,97
-0.0073921389898828,13,1,98
0.0024343414835684,13,1,99
0.0198333170423237,13,1,100
0.0427049024977756,13,1,101
0.0562002055335149,13,1,102
0.042400990221622,13,1,103
0.01842565979076,13,1,104
0.010361024927104,13,1,105
-0.0085305190494442,13,1,106
-0.0127223361328018,13,1,107
0.010860679198795,13,1,108
0.0112992359962995,13,1,109
0.0153875750803392,13,1,110
0.0293211693237958,13,1,111
0.0108648521512184,13,1,112
0.0172605979409043,13,1,113
0.0081766096358751,13,1,114
0.0029535903053506,13,1,115
-0.0224294782087496,13,1,116
-0.0353863535783694,13,1,117
-0.0364512327802947,13,1,118
-0.0196755036748317,13,1,119
0.0181532944172085,13,1,120
0.026855962605533,13,1,121
-0.0048958003917332,13,1,122
-0.0358861579660271,13,1,123
-0.0585343153167262,13,1,124
-0.0445084801718141,13,1,125
-0.0050651261867634,13,1,126
0.0253099728702412,13,1,127
0.0193988870077144,13,1,128
-0.0014998740028498,13,1,129
-0.0374895687605103,13,1,130
-0.0564575278824744,13,1,131
-0.0556115577147344,13,1,132
-0.0307900146211092,13,1,133
-0.0110417018761592,13,1,134
-0.0069226697127505,13,1,135
-0.0223908549302878,13,1,136
-0.0383360008235323,13,1,137
-0.0223173197338228,13,1,138
-0.0257019281931695,13,1,139
-0.0355822341424914,13,1,140
-0.0249406610354645,13,1,141
-0.0469968885708709,13,1,142
-0.0445353813623674,13,1,143
-0.0413892530892157,13,1,144
-0.0160909805708416,13,1,145
-0.0086220093710664,13,1,146
0.0223600138457628,13,1,147
0.0045226547002338,13,1,148
-0.0264407208518324,13,1,149
-0.0485967268767975,13,1,150
-0.0366666732523617,13,1,151
-0.0202561502027337,13,1,152
0.0268867134218121,13,1,153
0.0393934715693677,13,1,154
0.0364783785766816,13,1,155
0.0283404160661203,13,1,156
0.0121219121041892,13,1,157
-0.0385895911313971,13,1,158
-0.0164989248173342,13,1,159
-0.0025115628349172,13,1,160
0.0180602689768121,13,1,161
0.0407818922396839,13,1,162
0.0531196594662885,13,1,163
0.0142339235390767,13,1,164
0.0053573646753474,13,1,165
0.004376646059818,13,1,166
0.0059839873117015,13,1,167
0.017536939581663,13,1,168
0.0158834374632146,13,1,169
0.0033461017101106,13,1,170
0.0232293473576455,13,1,171
0.0042151696322062,13,1,172
0.0179334738228798,13,1,173
0.032390074134788,13,1,174
0.0278096645566886,13,1,175
0.0201452057070984,13,1,176
-0.0363952564048572,16,1,0
-0.0204592234095196,16,1,1
-0.0084560219043518,16,1,2
-0.0095085287372744,16,1,3
-0.0099748715392848,16,1,4
-0.0099787414421909,16,1,5
-0.0189259453220926,16,1,6
-0.0403423746182002,16,1,7
-0.0486965604696332,16,1,8
-0.0387342259788745,16,1,9
0.0262948923964774,16,1,10
0.0415926119609244,16,1,11
0.0415926119609244,16,1,12
0.0111059254350513,16,1,13
-0.0074826807141967,16,1,14
-0.0244370173874696,16,1,15
-0.0282757587297544,16,1,16
-0.0028077160629286,16,1,17
0.0181311150457527,16,1,18
0.0205936104007037,16,1,19
0.0265078981438357,16,1,20
0.0290630743638581,16,1,21
0.0200529723841087,16,1,22
-0.0012783078784076,16,1,23
-0.0214260767361975,16,1,24
-0.0034793091953275,16,1,25
-0.0109413705426603,16,1,26
0.0026845970267551,16,1,27
0.0185418035011042,16,1,28
0.0406742012693001,16,1,29
0.0389618915650946,16,1,30
0.0244818607386958,16,1,31
0.0007593860689232,16,1,32
-0.0162586720678229,16,1,33
-0.0154410165492119,16,1,34
0.0010729328078257,16,1,35
0.0235189211672845,16,1,36
0.0385630068201729,16,1,37
0.0074086139048675,16,1,38
0.0154262023415825,16,1,39
0.0099564270350307,16,1,40
-0.0050762755267907,16,1,41
0.0016769700061753,16,1,42
0.0021809134350094,16,1,43
-0.0003300954196556,16,1,44
-0.00231495715485,16,1,45
0.0026811523118118,16,1,46
0.0210830427016064,16,1,47
0.0174817964686508,16,1,48
0.0236391675841493,16,1,49
-0.0102473965579737,16,1,50
-0.0151874180699837,16,1,51
-0.0192466295171932,16,1,52
0.0167360155965116,16,1,53
0.0006174792571522,16,1,54
0.0296087835918407,16,1,55
0.033619528782443,16,1,56
0.0211124547131016,16,1,57
0.0151280086865068,16,1,58
-0.0038033908622644,16,1,59
-0.0281828024164371,16,1,60
-0.0253801080009805,16,1,61
0.0054973303176228,16,1,62
0.0367127845220073,16,1,63
0.0146316869557175,16,1,64
0.0132065613345904,16,1,65
-0.0244480838004576,16,1,66
-0.0476923759511037,16,1,67
-0.018119759995772,16,1,68
-0.0227877879740466,16,1,69
0.0026324025965628,16,1,70
-0.0013598316446579,16,1,71
0.005609624334694,16,1,72
-0.0335434891731644,16,1,73
-0.0203965767267301,16,1,74
-0.0192090525119229,16,1,75
-0.0255153143552929,16,1,76
-0.0121875202101462,16,1,77
-0.0218214070784386,16,1,78
-0.0324990848893866,16,1,79
-0.0064118873366507,16,1,80
0.0023111891294016,16,1,81
0.0094754077542146,16,1,82
0.0161017278215178,16,1,83
0.0031991226267306,16,1,84
-0.0202727556763778,16,1,85
-0.0713180800677899,16,1,86
-0.0143591449479011,16,1,87
-0.0347307079463133,16,1,88
0.0437117115667381,16,1,89
0.0234970009352898,16,1,90
0.0215716246265836,16,1,91
-0.0292981567153539,16,1,92
-0.0213968182648,16,1,93
-0.0264323549968147,16,1,94
-0.0137806380473638,16,1,95
0.0052364268184289,16,1,96
0.0247131930826572,16,1,97
0.0289664489308393,16,1,98
0.0365330290571008,16,1,99
0.0174973941880427,16,1,100
-0.0152475412784161,16,1,101
-0.0273955037714609,16,1,102
-0.0245077345778202,16,1,103
-0.0119487495369284,16,1,104
0.0565235295992626,16,1,105
0.0514133661316458,16,1,106
0.0436667608897348,16,1,107
0.0280372080417619,16,1,108
0.0110309840184922,16,1,109
0.0096131966367679,16,1,110
0.0106167175389067,16,1,111
0.0276755966126617,16,1,112
0.0014529488893167,16,1,113
0.0274665826763577,16,1,114
0.0254821225075727,16,1,115
0.0286603112960002,16,1,116
0.0291453658305968,16,1,117
0.0294666405645347,16,1,118
0.0016921897807113,16,1,119
-0.0231645955561294,16,1,120
-0.0191608342816275,16,1,121
-0.0002700430758836,16,1,122
0.0443384507212406,16,1,123
0.0539574012736389,16,1,124
0.0306082928617523,16,1,125
-0.0101355277288654,16,1,126
-0.0573851219161318,16,1,127
-0.0592670500879594,16,1,128
-0.0163213305613891,16,1,129
0.0076359447888415,16,1,130
0.0466446440313637,16,1,131
0.0256979786306562,16,1,132
-0.0154032741930672,16,1,133
-0.0213656700691232,16,1,134
-0.0314400033075344,16,1,135
-0.0203063328601978,16,1,136
-0.011236087441209,16,1,137
-0.0043598948553698,16,1,138
-0.02041778831212,16,1,139
-0.0323429107659808,16,1,140
-0.0232907865407411,16,1,141
-0.0115755756422169,16,1,142
-0.001542689311982,16,1,143
-0.03212646410406,16,1,144
-0.041170777658827,16,1,145
-0.0443196961650803,16,1,146
-0.0134633395133227,16,1,147
0.0100796221142155,16,1,148
0.0095199568648086,16,1,149
-0.0293055185763102,16,1,150
-0.0382381050312899,16,1,151
-0.0614456114987077,16,1,152
-0.0164182394530499,16,1,153
-0.015429713920689,16,1,154
0.0435920793102641,16,1,155
0.0096881734856572,16,1,156
-0.0404773565677545,16,1,157
0.0014164871263443,16,1,158
0.0187876301329365,16,1,159
0.0405330503472408,16,1,160
-0.0203437917577006,15,1,0
-0.0361261546924511,15,1,1
-0.0169486226095057,15,1,2
0.0050015282610103,15,1,3
0.0206013265849624,15,1,4
0.0086023020628961,15,1,5
0.0131990695550898,15,1,6
0.0024756775766651,15,1,7
0.0031771283307809,15,1,8
-0.0029308284666761,15,1,9
-0.0067401223651356,15,1,10
-0.0012592182009655,15,1,11
0.0225415447233488,15,1,12
0.0284588481930805,15,1,13
0.0210490875729306,15,1,14
0.0030501846557521,15,1,15
-0.0034270911435817,15,1,16
-0.0083667583322893,15,1,17
0.0056772038902967,15,1,18
0.0056772038902967,15,1,19
0.0220227476540578,15,1,20
0.0170792459947743,15,1,21
0.023608550873426,15,1,22
0.0221535526205106,15,1,23
0.0200490822503956,15,1,24
0.0205193067660888,15,1,25
-0.0059528945848199,15,1,26
-0.0048595313825582,15,1,27
0.0136988832439294,15,1,28
0.0224593831751543,15,1,29
0.0290187850903525,15,1,30
0.0355781870055506,15,1,31
-0.0088295737439192,15,1,32
-0.0178513410955241,15,1,33
-0.0094153007760919,15,1,34
-0.0074264746517774,15,1,35
0.0136168043711721,15,1,36
0.0245341462643555,15,1,37
0.0076692385140195,15,1,38
-0.0169147147239369,15,1,39
-0.0133851187326948,15,1,40
-0.0143514523851958,15,1,41
0.0057216821362302,15,1,42
0.0127215540431008,15,1,43
-0.0084788633769326,15,1,44
-0.0063706057793487,15,1,45
-0.0068631166611157,15,1,46
-0.0097882502660453,15,1,47
-0.0142990689825757,15,1,48
0.0055724607066098,15,1,49
-0.0304026453844874,15,1,50
-0.0074044835551223,15,1,51
-0.0160031128683484,15,1,52
-0.0084189409517049,15,1,53
-0.0073589423392817,15,1,54
-0.0103595016026169,15,1,55
-0.0144632739711972,15,1,56
-0.0111203132768644,15,1,57
-0.0246045268369754,15,1,58
-0.0247947943459939,15,1,59
-0.0129337594896856,15,1,60
-0.0133963741181107,15,1,61
-0.0004195479641459,15,1,62
-0.0173290520681829,15,1,63
-0.0053144298267246,15,1,64
-0.0150503783209991,15,1,65
-0.0183250575692675,15,1,66
-0.0103817525363605,15,1,67
-0.0223958314820884,15,1,68
0.0164747363653549,15,1,69
-0.0174559044562923,15,1,70
-0.0153489722586741,15,1,71
-0.0040461473332627,15,1,72
0.0129636985666014,15,1,73
0.0315181369931922,15,1,74
0.0098113921863955,15,1,75
0.0275782625330381,15,1,76
-0.0013264316224891,15,1,77
-0.0243658041444956,15,1,78
0.0014682395285132,15,1,79
0.0214295524639381,15,1,80
0.0515173694464128,15,1,81
0.0357644539554877,15,1,82
0.0242677765520558,15,1,83
-0.0044120184209016,15,1,84
-0.0133031461569282,15,1,85
-0.0033597005604069,15,1,86
0.0093631137371434,15,1,87
0.0414353436452964,15,1,88
0.0456595986462763,15,1,89
0.0534944441326881,15,1,90
0.029565932545187,15,1,91
-0.0014755703766723,15,1,92
-0.0133739342119393,15,1,93
0.0413756928679338,15,1,94
0.0405998267700248,15,1,95
0.0577630828933876,15,1,96
0.0243249182588081,15,1,97
-0.0060311946501385,15,1,98
-0.0010390141402665,15,1,99
0.0056021207444167,15,1,100
0.0464504719247399,15,1,101
0.0467039168638704,15,1,102
0.022616202681266,15,1,103
-0.0133777450609617,15,1,104
-0.0119786576010469,15,1,105
-0.0026064160979903,15,1,106
0.0136618141020592,15,1,107
0.0435919612024966,15,1,108
0.0305412093587729,15,1,109
0.0036274133994308,15,1,110
-0.039819849375324,15,1,111
-0.0324398078468648,15,1,112
-0.024597257986971,15,1,113
0.0185865685964262,15,1,114
0.0297426198960506,15,1,115
0.0156912721909546,15,1,116
-0.0006981716970039,15,1,117
-0.0303914844852854,15,1,118
-0.022862115230215,15,1,119
-0.020433149815977,15,1,120
-0.0023896151127672,15,1,121
0.002871383650869,15,1,122
-0.0066454344108866,15,1,123
-0.0248917032376546,15,1,124
-0.0268804939296388,15,1,125
-0.0242983899397673,15,1,126
-0.0222389647328697,15,1,127
-0.013321739781747,15,1,128
0.0007371351351797,15,1,129
-0.0203585272903899,15,1,130
-0.0284027410364081,15,1,131
-0.037902118386216,15,1,132
-0.0412152559047606,15,1,133
-0.0263281787304116,15,1,134
-0.0094190998143375,15,1,135
-0.0140356256549979,15,1,136
-0.0243844804447517,15,1,137
-0.0444091841419009,15,1,138
-0.0614604533283879,15,1,139
-0.0353277542021567,15,1,140
-0.0192912613032244,15,1,141
0.0005203341499565,15,1,142
0.0001921667868375,15,1,143
-0.0204668805398946,15,1,144
-0.0278282575788746,15,1,145
-0.0193588172372737,15,1,146
-0.029372956402592,15,1,147
-0.0192167923177352,15,1,148
0.0016200723888091,15,1,149
0.0090274577938184,15,1,150
-0.0013747915821055,15,1,151
0.0007967622909888,15,1,152
-0.011403867063318,15,1,153
-0.0073895236176747,15,1,154
0.0106843797699466,15,1,155
0.0265686224944714,15,1,156
0.0226273872020215,15,1,157
0.0016286336681124,15,1,158
-0.0133515887919818,15,1,159
-0.0204333151668514,15,1,160
-0.0064787818672021,15,1,161
0.02284993872793,15,1,162
0.0330594619666268,15,1,163
0.0211460791400286,15,1,164
0.0066021733100586,15,1,165
0.0034902176486848,15,1,166
0.0037968491232542,15,1,167
0.0315408013041218,15,1,168
0.0286195021697681,15,1,169
0.0190153698254965,15,1,170
0.0104599334651252,15,1,171
-0.0113365945879107,15,1,172
-0.0094862778035309,15,1,173
0.0126616434286498,15,1,174
0.028947595468932,15,1,175
0.0360890789181549,15,1,176
0.0265635216778137,15,1,177
0.0116243091271562,15,1,178
0.0045426181846168,15,1,179
0.0126390854147109,15,1,180
0.0070312107546639,15,1,181
0.0070500287842408,15,1,182
0.0126767214738649,15,1,183
-0.0043896021362837,15,1,184
-0.0059528355309362,15,1,185
0.0056617006571188,15,1,186
0.0021996015460422,15,1,187
0.0065985868657944,15,1,188
0.0095983311855342,15,1,189
0.0047369910744452,15,1,190
0.0136614597787568,15,1,191
-0.0223358263814234,15,1,192
-0.0154373119971803,15,1,193
-0.0249067222289859,15,1,194
-0.0153251833309835,15,1,195
-0.0042924097859811,15,1,196
-0.0112098366860152,15,1,197
-0.0054415892950295,15,1,198
-0.0163326686222423,15,1,199
-0.0461741404135467,18,1,0
-0.0273861369967069,18,1,1
0.0022754407169817,18,1,2
-0.0057057964619644,18,1,3
-0.0112237295045985,18,1,4
-0.0021916607370892,18,1,5
-0.0434071394353999,18,1,6
-0.0450870802339665,18,1,7
-0.0261467977793372,18,1,8
-0.0128285375056177,18,1,9
0.0093367018005445,18,1,10
0.0213285130329027,18,1,11
0.0288502325791577,18,1,12
0.0126981799928022,18,1,13
-0.0182848175619542,18,1,14
-0.0378656735470341,18,1,15
-0.0236830394492315,18,1,16
0.0276829287924426,18,1,17
0.0505145824096103,18,1,18
0.0517325197106459,18,1,19
0.0309731679029625,18,1,20
-0.0272120234770656,18,1,21
-0.0245793484877139,18,1,22
0.0057531748246326,18,1,23
0.0368169566934212,18,1,24
0.0517908963935152,18,1,25
0.04271033002682,18,1,26
0.0196837990078157,18,1,27
-0.0099304142855554,18,1,28
-0.0117018859184886,18,1,29
0.0047825327725149,18,1,30
0.0117275054982706,18,1,31
0.048790431940443,18,1,32
0.0365369529782775,18,1,33
0.0049753715864585,18,1,34
-0.0286465143470116,18,1,35
-0.0107965094008914,18,1,36
0.0226069776433711,18,1,37
0.0315083639439079,18,1,38
0.0329078659514092,18,1,39
-0.0079509396201037,18,1,40
-0.0055124690673345,18,1,41
0.0096046282251712,18,1,42
0.0208032107870696,18,1,43
0.0280168698639392,18,1,44
0.0111055554933669,18,1,45
-0.0032424166266866,18,1,46
-0.0101619482326958,18,1,47
-0.0008485970016443,18,1,48
0.0234485878943307,18,1,49
0.0288138417760714,18,1,50
0.0216835895645759,18,1,51
0.0138367063753245,18,1,52
-0.0131331486453678,18,1,53
-0.0053914355458906,18,1,54
0.0068441119955562,18,1,55
0.0127311408827392,18,1,56
0.0096628244847566,18,1,57
0.0188142401439938,18,1,58
0.0120839407140335,18,1,59
0.0119600822138847,18,1,60
0.0112240701767031,18,1,61
0.0012645416845722,18,1,62
-0.0129945932401912,18,1,63
-0.0167763161714011,18,1,64
-0.0220741538920577,18,1,65
-0.0072493191573761,18,1,66
0.0010688375044422,18,1,67
0.0048369783933511,18,1,68
-0.012129051951506,18,1,69
-0.0111183475735794,18,1,70
-0.0382111094502815,18,1,71
-0.0181471164736751,18,1,72
0.0047354950819512,18,1,73
0.0028807162165012,18,1,74
-0.0207049285566323,18,1,75
-0.0401966032251178,18,1,76
-0.0471816382766823,18,1,77
-0.0101839557407547,18,1,78
-0.0173210751756257,18,1,79
-0.0103024791023305,18,1,80
-0.0258028115147971,18,1,81
-0.0211940887245518,18,1,82
-0.0272190204700964,18,1,83
-0.0050607073618089,18,1,84
0.0078441803001434,18,1,85
-0.0101406544577412,18,1,86
-0.0202414582336321,18,1,87
-0.025172094895531,18,1,88
-0.0151508750643605,18,1,89
-0.0231975399898965,18,1,90
-0.0103362564068201,18,1,91
0.0236829908123701,18,1,92
0.0083042278255938,18,1,93
0.000457052654618,18,1,94
-0.007582453065818,18,1,95
-0.0050533426880881,18,1,96
0.0097420117234343,18,1,97
0.0168071930548922,18,1,98
0.0257700327834339,18,1,99
-0.0082240328553202,18,1,100
-0.0063404657715394,18,1,101
0.0056409040419622,18,1,102
0.0277193304096669,18,1,103
0.0237920334519737,18,1,104
0.0178289660716759,18,1,105
0.0072495516881013,18,1,106
0.0217450429925808,18,1,107
0.0303790367412657,18,1,108
0.0229956671315664,18,1,109
0.0288643563348745,18,1,110
0.0136983131822171,18,1,111
0.0111839967552792,18,1,112
0.0103003684879075,18,1,113
0.0187891991473511,18,1,114
0.0252083721769283,18,1,115
0.0276171333651628,18,1,116
0.0317992308292878,18,1,117
0.0218140773770653,18,1,118
0.005996798550828,18,1,119
0.0077751567297968,18,1,120
0.0237559562588878,18,1,121
0.0297737936841601,18,1,122
0.0084203972278835,18,1,123
-0.0023366616142615,18,1,124
0.0002177384852838,18,1,125
0.002917009692346,18,1,126
0.0020623532021729,18,1,127
0.0010628256044829,18,1,128
0.0013919527519261,18,1,129
-0.011132709240331,18,1,130
-0.0151215028825808,18,1,131
-0.0150453525495481,18,1,132
-0.0147016366384565,18,1,133
-0.0184228647026475,18,1,134
-0.0051402047934257,18,1,135
-0.0051408968982541,18,1,136
-0.0035567603559985,18,1,137
-0.0211759473936983,18,1,138
-0.0231793662166292,18,1,139
-0.0252445737058413,18,1,140
-0.0252994410780573,18,1,141
-0.0039657418016107,18,1,142
-0.0142925254231889,18,1,143
-0.0212957018056069,18,1,144
-0.027149953643198,18,1,145
-0.0190306260670067,18,1,146
-0.0136910512160473,18,1,147
0.001779002388445,18,1,148
-0.0063146677852407,18,1,149
-0.0100713713480839,18,1,150
-0.03865311297212,18,1,151
-0.0223792959310856,18,1,152
0.0088367325330786,18,1,153
0.0048333501271804,18,1,154
-0.0122417769279699,18,1,155
-0.0302046258060716,18,1,156
0.0148761989715818,18,1,157
-0.0067639927242482,18,1,158
-0.0031989855740178,18,1,159
0.0054349000332877,18,1,160
-0.002151684924384,18,1,161
0.0688768217340742,18,1,162
0.0341717309840913,17,1,0
0.0307192108992902,17,1,1
-0.0066549500846446,17,1,2
-0.0316499149614261,17,1,3
-0.0361898737206355,17,1,4
-0.0152199527053968,17,1,5
0.0152453343741441,17,1,6
0.034784295458366,17,1,7
0.0236470325748015,17,1,8
0.0078440937870398,17,1,9
0.006727856080163,17,1,10
-0.006184223229303,17,1,11
-0.0056370432450664,17,1,12
-0.0002498359259565,17,1,13
0.0247412844018954,17,1,14
0.0262485028073243,17,1,15
0.0247376885781385,17,1,16
0.0287519774108247,17,1,17
0.0066624391477111,17,1,18
0.0072168215935995,17,1,19
0.0048005118912992,17,1,20
-0.0110168210056278,17,1,21
0.0058441085757967,17,1,22
0.0236252413495015,17,1,23
0.0286502453742521,17,1,24
0.0332226855027906,17,1,25
0.0327990504087023,17,1,26
0.0067931432429595,17,1,27
-0.0001990618278428,17,1,28
-0.0101766559518615,17,1,29
-0.0072641133896454,17,1,30
0.004793395942751,17,1,31
0.0222996849777797,17,1,32
0.0318934576083463,17,1,33
0.0406823784717297,17,1,34
0.0307336807074212,17,1,35
0.0028659760549216,17,1,36
-0.0126328982103153,17,1,37
-0.0300519142027644,17,1,38
-0.0173144242350091,17,1,39
0.0009029872384896,17,1,40
0.0193325994674859,17,1,41
0.0347334456612866,17,1,42
0.0232669691171754,17,1,43
-0.0006770992862154,17,1,44
-0.027599170440826,17,1,45
-0.0181833342505544,17,1,46
-0.0070241720003104,17,1,47
0.0138291254188448,17,1,48
-0.0061038606666507,17,1,49
-0.0051476343519742,17,1,50
-0.0132197944679466,17,1,51
-0.0141324167037472,17,1,52
0.0047714965760716,17,1,53
-0.0036915577253491,17,1,54
-0.0176433999845211,17,1,55
-0.0310589362438306,17,1,56
-0.0335624541038827,17,1,57
-0.0151688325548689,17,1,58
0.015763736954188,17,1,59
0.0166692324273025,17,1,60
0.0118949248207436,17,1,61
-0.0301245876675576,17,1,62
-0.0365660601869182,17,1,63
-0.0472105346363925,17,1,64
-0.022117866112313,17,1,65
0.0097351445000588,17,1,66
0.0087896083294114,17,1,67
0.0107930812230321,17,1,68
-0.0011879641663314,17,1,69
-0.0161616010705629,17,1,70
-0.0201542068193285,17,1,71
-0.024132169733756,17,1,72
-0.016110675574518,17,1,73
0.0008081548677063,17,1,74
0.0057715432523829,17,1,75
0.0058297469090451,17,1,76
0.0148364502557734,17,1,77
0.0016700678902208,17,1,78
-0.0072274630472484,17,1,79
-0.0006917421205535,17,1,80
-0.0006264333294811,17,1,81
0.0099381976359621,17,1,82
0.007833176546114,17,1,83
0.0257410931671719,17,1,84
0.0116842474718089,17,1,85
0.0318278676496874,17,1,86
0.0237341758477257,17,1,87
0.0079093376932846,17,1,88
0.0138654621512414,17,1,89
0.0037132894996498,17,1,90
0.0108366961160459,17,1,91
0.0367403305383191,17,1,92
0.0312408740648147,17,1,93
0.0322772142169708,17,1,94
0.0382476895275412,17,1,95
0.0292264406737164,17,1,96
0.0108220749099837,17,1,97
0.0107566147209801,17,1,98
0.0187778060843557,17,1,99
0.0197924955950051,17,1,100
0.0408564054782674,17,1,101
0.0337479877486237,17,1,102
0.0287846858770506,17,1,103
0.0166329281373197,17,1,104
-0.004191732461436,17,1,105
0.0077822726783449,17,1,106
0.0252122275399958,17,1,107
0.0139235684806622,17,1,108
0.008394934479861,17,1,109
-0.0092493259968952,17,1,110
-0.0103002332844238,17,1,111
0.0037428779641884,17,1,112
0.021886858983238,17,1,113
0.0257557143732342,17,1,114
0.0078041612308864,17,1,115
-0.010132986988158,17,1,116
-0.0301753617656714,17,1,117
-0.007220206514907,17,1,118
-0.0056585641169178,17,1,119
0.0053586956295653,17,1,120
-0.0021622236704819,17,1,121
-0.0071912452703692,17,1,122
-0.0410001828213148,17,1,123
-0.0372037197285253,17,1,124
-0.0111765944867934,17,1,125
0.0107567877471872,17,1,126
0.0148872676104389,17,1,127
0.0124201081110593,17,1,128
-0.0252047601052052,17,1,129
-0.068998332029752,17,1,130
-0.0421963288970504,17,1,131
-0.0342440097060902,17,1,132
-0.0091111058299948,17,1,133
0.0008700516753669,17,1,134
-0.0122199929120953,17,1,135
-0.0386530048307405,17,1,136
-0.0419494770277882,17,1,137
-0.0502321414664881,17,1,138
-0.0251175735757292,17,1,139
-0.0071840752511314,17,1,140
-0.0135217921090999,17,1,141
-0.0311243207338686,17,1,142
-0.0362258319582041,17,1,143
-0.0372256947941703,17,1,144
-0.0202595563079338,17,1,145
0.0109673353264666,17,1,146
-0.0106038544272928,17,1,147
-0.0231648639660844,17,1,148
-0.0313932558101552,17,1,149
-0.0241611526065697,17,1,150
-0.0121908838743389,17,1,151
0.0098145554185721,17,1,152
0.0102930038141867,17,1,153
0.0027244087894371,17,1,154
-0.0047786611614811,17,1,155
-0.0096475524136506,17,1,156
0.016413308175116,17,1,157
0.0355590868362322,17,1,158
0.0293608054775492,17,1,159
0.0058987704793917,17,1,160
-0.0180087016522918,17,1,161
0.0016699164922896,17,1,162
0.0097711351800412,17,1,163
0.0178723538677929,17,1,164
0.0472252694176625,17,1,165
0.0272592179993888,17,1,166
-0.0002713892402218,17,1,167
0.0039022405081122,17,1,168
-0.0117491398918111,17,1,169
-0.0018189835814598,17,1,170
-0.0011621986224465,17,1,171
0.0372441876112663,17,1,172
0.0257267963852481,17,1,173
0.0278351105029906,17,1,174
-0.0103069274815921,17,1,175
0.0049747227381819,17,1,176
0.0086118881718753,17,1,177
0.0359434451392904,17,1,178
0.0216618632241035,17,1,179
0.0130469261107061,17,1,180
0.0046482436676476,17,1,181
-0.0027424041026689,17,1,182
-0.0521207284024767,20,1,0
-0.0161436693953992,20,1,1
-0.0161436693953992,20,1,2
0.0083083704820377,20,1,3
0.0158898664554537,20,1,4
-0.0060086374985325,20,1,5
-0.0279504943135611,20,1,6
-0.0591663219108502,20,1,7
-0.0471243120102082,20,1,8
-0.0014020873648332,20,1,9
0.0229716521900751,20,1,10
0.0249287546374119,20,1,11
0.0093866543841329,20,1,12
-0.0500984123756564,20,1,13
-0.0150798048472637,20,1,14
-0.0150798048472637,20,1,15
0.0010013883148774,20,1,16
0.0183862051467015,20,1,17
0.0238788325448076,20,1,18
0.0409244092342948,20,1,19
0.002951452986033,20,1,20
0.0169719653326531,20,1,21
0.02983181658369,20,1,22
0.0129829372293686,20,1,23
0.0046118183799999,20,1,24
-0.0056018781174281,20,1,25
-0.0231569355161163,20,1,26
0.0227321855722801,20,1,27
0.0227321855722801,20,1,28
0.0339459151977599,20,1,29
0.0394242418027127,20,1,30
0.0124723332864177,20,1,31
-0.0261292289247461,20,1,32
-0.0205582133579585,20,1,33
-0.008130007511201,20,1,34
0.0163686694576618,20,1,35
0.0274176357855497,20,1,36
0.01733974563199,20,1,37
0.0023232390456119,20,1,38
-0.0060590486121916,20,1,39
0.0047692865116086,20,1,40
0.0047692865116086,20,1,41
0.0215502210265789,20,1,42
0.0181003882143344,20,1,43
0.0090437468995477,20,1,44
-0.0030943019204264,20,1,45
-0.0016408270691661,20,1,46
0.0098832851568993,20,1,47
0.0249180597572001,20,1,48
0.0149508369390949,20,1,49
0.0020087868420793,20,1,50
-0.0049802382631828,20,1,51
0.007904844140228,20,1,52
0.0149830853912145,20,1,53
0.0340388191621682,20,1,54
0.0151005755002767,20,1,55
-0.0018841101979129,20,1,56
-3.04120690584084e-05,20,1,57
-0.0041015775890149,20,1,58
0.0024194285680053,20,1,59
0.0034729463353335,20,1,60
-0.0025410208388063,20,1,61
0.0019587545424779,20,1,62
0.0094868623183845,20,1,63
0.0130329592907522,20,1,64
-8.040341578864681e-05,20,1,65
-0.011022919644025,20,1,66
-0.0409636388476326,20,1,67
-0.0344749630484742,20,1,68
-0.0130618830761538,20,1,69
-0.0031516484280888,20,1,70
0.022896747075722,20,1,71
0.0103653796575035,20,1,72
-0.0061622072134471,20,1,73
-0.0448348389806682,20,1,74
-0.0383533954838286,20,1,75
-0.0239972591460313,20,1,76
0.0128330860477912,20,1,77
0.0139616113116503,20,1,78
-0.0250220524684393,20,1,79
-0.0251003382549431,20,1,80
-0.0246503079185385,20,1,81
-0.0131937558841117,20,1,82
0.0131040434895904,20,1,83
-0.0121801079234976,20,1,84
-0.0115728507681478,20,1,85
-0.0270430989562553,20,1,86
-0.0380390793473325,20,1,87
-0.0170474793161988,20,1,88
0.0177258216896976,20,1,89
0.0269037228379726,20,1,90
0.0048117384094866,20,1,91
-0.0090299833080625,20,1,92
-0.0299572400082237,20,1,93
-0.0365569107658054,20,1,94
0.0309671646211569,20,1,95
0.0117403332432512,20,1,96
0.0509021631211273,20,1,97
0.0274358496381781,20,1,98
0.0029976336554661,20,1,99
-0.0371065142669594,20,1,100
-0.0181650025533129,20,1,101
0.0067833668907678,20,1,102
0.0150326467327981,20,1,103
0.0249178549928446,20,1,104
0.0050550361810144,20,1,105
0.0297464008770451,20,1,106
-0.0070443407037256,20,1,107
0.026874834581568,20,1,108
0.0158398955851589,20,1,109
0.0195039536246067,20,1,110
0.0080153067113269,20,1,111
0.0288251961610392,20,1,112
0.0277319519220458,20,1,113
0.0198543903198263,20,1,114
0.0389595625737503,20,1,115
0.0318962978382905,20,1,116
0.0340316585273737,20,1,117
0.0029621990573336,20,1,118
0.0080903449225111,20,1,119
-0.0102938951488612,20,1,120
0.0218825257749123,20,1,121
0.0249929751097711,20,1,122
0.022028955331468,20,1,123
0.0114154962762456,20,1,124
-0.0180292883534045,20,1,125
-0.0099873290592274,20,1,126
0.0140760586097486,20,1,127
0.0101256922034806,20,1,128
0.0140544845614052,20,1,129
0.0060119109741616,20,1,130
-0.0203075443536261,20,1,131
-0.001930106579426,20,1,132
-0.0301287676203223,20,1,133
-0.0019518034863827,20,1,134
0.0015193986098495,20,1,135
0.0024800636038584,20,1,136
-0.0168867284900542,20,1,137
-0.0331143102558799,20,1,138
-0.0150008023855156,20,1,139
-0.0151653024596508,20,1,140
0.0010408895457515,20,1,141
0.0040263093226958,20,1,142
-0.0201151388919929,20,1,143
-0.0265645284628506,20,1,144
-0.0560774466243348,20,1,145
-0.0480845572372882,20,1,146
-0.0110941062250409,20,1,147
0.010415268622056,20,1,148
-0.008179852552677,20,1,149
-0.0140939701301875,20,1,150
-0.036021464722756,20,1,151
-0.0201221664299563,20,1,152
0.0079116669138359,20,1,153
-0.0121440487940808,20,1,154
-0.0220935696704465,20,1,155
-0.0181149088244049,20,1,156
0.0104295387005561,20,1,157
-0.0020661484023033,20,1,158
0.0208184564624213,20,1,159
0.0194040016457995,20,1,160
0.0088618008391174,20,1,161
0.0559665287573099,20,1,162
0.0294569985081718,20,1,163
0.0181039941272761,19,1,0
-0.01695091824776,19,1,1
-0.0511526672946645,19,1,2
-0.0430209389910032,19,1,3
-0.0061016438451185,19,1,4
0.0321032293338682,19,1,5
0.076593900133998,19,1,6
0.0697369307970122,19,1,7
0.0249680715803659,19,1,8
-0.047856604557127,19,1,9
-0.047856604557127,19,1,10
-0.0611913326492301,19,1,11
0.0219574001746121,19,1,12
0.0547984613097058,19,1,13
0.0593197493100268,19,1,14
0.0248134056893878,19,1,15
-0.0011088845568806,19,1,16
-0.0128944016203613,19,1,17
-0.0094124739292639,19,1,18
0.00204033909539,19,1,19
-0.0012874806598136,19,1,20
0.0072977917492338,19,1,21
0.0158830641582814,19,1,22
0.0423741962668712,19,1,23
0.0382315677340188,19,1,24
0.0256751124984753,19,1,25
0.0021121502076903,19,1,26
-0.0123836133894904,19,1,27
-0.0254221733638559,19,1,28
0.0009480367724322,19,1,29
0.0473239507934711,19,1,30
0.0637624034244397,19,1,31
0.0556450271050207,19,1,32
0.0270319385418999,19,1,33
-0.0498988360410109,19,1,34
-0.0620771949110635,19,1,35
-0.0110726038442219,19,1,36
-0.0001378932584999,19,1,37
0.0321389608403162,19,1,38
0.0569019318842916,19,1,39
0.043281407336257,19,1,40
0.0031263510320644,19,1,41
-0.0290073108472977,19,1,42
-0.0195221825297966,19,1,43
-0.0201865199991466,19,1,44
-0.0029019374116643,19,1,45
-0.0110297014647617,19,1,46
0.001047958036586,19,1,47
0.0118619718907973,19,1,48
0.0013766978248488,19,1,49
0.0028481203350753,19,1,50
-0.0090297785437069,19,1,51
-0.01695837579087,19,1,52
-0.0263720308572575,19,1,53
-0.0201363648409319,19,1,54
-0.017036559195196,19,1,55
-0.0110726243206575,19,1,56
0.0168758137929254,19,1,57
-0.0020732578460089,19,1,58
-0.0089869785464245,19,1,59
-0.0318432684949401,19,1,60
-0.0392281167884314,19,1,61
-0.0360461942024589,19,1,62
-0.0281645352528444,19,1,63
0.0154472015181991,19,1,64
0.0307464032904435,19,1,65
0.0243395577614239,19,1,66
-0.0058587760787373,19,1,67
-0.015504614269512,19,1,68
-0.0345606347105635,19,1,69
-0.0631340728741067,19,1,70
-0.0268359626963221,19,1,71
0.0278178181102729,19,1,72
0.0177043090706608,19,1,73
0.0381172169844436,19,1,74
0.0199397138825112,19,1,75
-0.0010373805911136,19,1,76
-0.0199689140997928,19,1,77
-0.0218652279380098,19,1,78
-0.0084230332992461,19,1,79
0.0107330166217916,19,1,80
0.0348889908704248,19,1,81
0.0178899019969039,19,1,82
0.0218541903822677,19,1,83
0.0347814892045477,19,1,84
0.0048476951567256,19,1,85
0.0182039358678655,19,1,86
0.0057974809826028,19,1,87
0.0093615972814611,19,1,88
0.0249322684063935,19,1,89
0.0418778009731136,19,1,90
0.0528665388236541,19,1,91
0.0453169184287108,19,1,92
0.0398812996770806,19,1,93
0.0248894069798045,19,1,94
0.0013978828209167,19,1,95
0.0050405306235054,19,1,96
0.0018407013314379,19,1,97
0.0360030924825172,19,1,98
0.0538735482985804,19,1,99
0.0597944169821743,19,1,100
0.0468702940676894,19,1,101
0.0004336528668373,19,1,102
-0.009040780570452,19,1,103
-0.0081016896247865,19,1,104
-0.0035697681735604,19,1,105
0.0209183777265751,19,1,106
0.0238895376632371,19,1,107
0.0278821512030276,19,1,108
0.005419149138103,19,1,109
-3.77877064261933e-05,19,1,110
-0.0081084509690877,19,1,111
-0.0140512827533006,19,1,112
-0.0079730029628415,19,1,113
0.0013241231291645,19,1,114
0.0129438352889879,19,1,115
0.0154008365608461,19,1,116
0.0128901254089204,19,1,117
-0.0065372710061919,19,1,118
-0.0129869267707118,19,1,119
-0.016554505647463,19,1,120
-0.0236255555490016,19,1,121
-0.0049837315557289,19,1,122
-0.0020303349901131,19,1,123
-0.00292304050199,19,1,124
0.0129401577085218,19,1,125
0.0008626005893517,19,1,126
-0.0050586844484317,19,1,127
-0.0250004988965315,19,1,128
-0.0429958716501136,19,1,129
-0.0510702022550236,19,1,130
-0.0465062985453401,19,1,131
-0.0291714013927218,19,1,132
-0.00208038776615,19,1,133
0.0008862031783378,19,1,134
-0.019900852235483,19,1,135
-0.0297575203385294,19,1,136
-0.0471419013315522,19,1,137
-0.0379570750274915,19,1,138
-0.0390566915585105,19,1,139
-0.0220386680576162,19,1,140
-0.0210578664652534,19,1,141
-0.0255039319664702,19,1,142
-0.0279569280348935,19,1,143
-0.0225647850029189,19,1,144
-0.0211717097085029,19,1,145
-0.0185686474559289,19,1,146
-0.0199913488451909,19,1,147
-0.0115227672774576,19,1,148
-0.0012590838378624,19,1,149
-0.0118869211874173,19,1,150
0.0168898074395455,19,1,151
0.0027409667686026,19,1,152
0.0028598260728691,19,1,153
-0.0134191937360702,19,1,154
-0.0139476122411562,19,1,155
-0.0191649230609692,19,1,156
-0.0101549026589799,19,1,157
0.0348676215864369,19,1,158
0.0338670867857141,19,1,159
0.030624624244224,19,1,160
0.0148720597181379,19,1,161
0.0078478662084055,19,1,162
0.0040190974968124,19,1,163
0.0017978603812844,19,1,164
0.0100689190360136,19,1,165
0.0139115380591779,19,1,166
0.0294249138675367,19,1,167
0.0228859600515503,19,1,168
0.010826094635902,19,1,169
0.0340673593191683,19,1,170
-0.001394695655593,19,1,171
0.0022977899204592,19,1,172
0.009613959901625,19,1,173
0.0144828998965953,19,1,174
0.0130405089778222,19,1,175
0.0236677934636172,19,1,176
0.0317893899890444,19,1,177
0.0128900844560493,19,1,178
0.0073379879211266,19,1,179
-0.0041160831465238,19,1,180
-0.0253861680594643,22,1,0
-0.0081470200965541,22,1,1
0.0044119630777559,22,1,2
-0.0020240264842769,22,1,3
-0.0214222722941285,22,1,4
-0.021825545367637,22,1,5
-0.0268615126568331,22,1,6
-0.0159785224102891,22,1,7
-0.0124590357746422,22,1,8
-0.0023035754469386,22,1,9
0.0044477805810877,22,1,10
0.0129952540537117,22,1,11
0.0151223227586114,22,1,12
-0.0134067971285025,22,1,13
-0.0164228924693678,22,1,14
-0.0224381129965715,22,1,15
0.0066277654587614,22,1,16
0.0200423347197036,22,1,17
0.0590068415797481,22,1,18
0.0294941356114637,22,1,19
-0.0118392203044343,22,1,20
-0.0404167721040428,22,1,21
-0.0310817674187321,22,1,22
0.0007948702755258,22,1,23
0.0321943085533621,22,1,24
0.0488475229077465,22,1,25
0.0232267839128655,22,1,26
-0.0136472018064042,22,1,27
-0.0114870653694121,22,1,28
0.0135266826179815,22,1,29
0.0187856815306138,22,1,30
0.0422579013133949,22,1,31
0.0210417913267728,22,1,32
-0.0032758225853635,22,1,33
-0.0225379275973934,22,1,34
-0.0055155930622662,22,1,35
0.0130111302311528,22,1,36
0.0199144136526036,22,1,37
0.0411128502137149,22,1,38
0.0150429418714062,22,1,39
-0.0232417515174723,22,1,40
-0.0278339217832061,22,1,41
0.0014239098717031,22,1,42
0.0258586666664056,22,1,43
0.0369926314527623,22,1,44
0.0312822881340493,22,1,45
-0.0015261573737974,22,1,46
-0.0220183255923218,22,1,47
-0.0240861907320043,22,1,48
-0.0401289765668851,22,1,49
0.0423294873707837,22,1,50
0.0071153847643958,22,1,51
0.0411856865306305,22,1,52
0.0031077318345715,22,1,53
0.0010761806650529,22,1,54
-0.0108546500860141,22,1,55
-0.0228342814877107,22,1,56
-0.0208258022427596,22,1,57
-0.0088747681226309,22,1,58
0.0275661238588094,22,1,59
0.0325780815287929,22,1,60
0.0076077089442161,22,1,61
-0.0076990586451548,22,1,62
-0.0349290607582334,22,1,63
-0.0387525617995404,22,1,64
-0.0078348526832916,22,1,65
0.0141430825441405,22,1,66
0.0100074434295326,22,1,67
-0.0125228921198983,22,1,68
-0.0259616142589572,22,1,69
-0.0438240616466961,22,1,70
-0.0008838625882972,22,1,71
0.0204705160364596,22,1,72
0.0081232613310448,22,1,73
-0.0312413895762675,22,1,74
-0.0496394103903824,22,1,75
-0.0599112427993654,22,1,76
-0.0429204872340366,22,1,77
0.0129310981671107,22,1,78
0.0389329922785204,22,1,79
0.0105393538646617,22,1,80
-0.0403085635907146,22,1,81
-0.060718700593954,22,1,82
-0.0509607404075427,22,1,83
-0.023057850325559,22,1,84
0.0280736209450869,22,1,85
0.0210781964616938,22,1,86
-0.0094631047322282,22,1,87
-0.0320172675713575,22,1,88
-0.0479601565850898,22,1,89
-0.0400330943724754,22,1,90
-0.0060596906365159,22,1,91
0.0324813918751055,22,1,92
0.0137112121890641,22,1,93
-0.0122349069247142,22,1,94
-0.0268181071278366,22,1,95
-0.0170020928248648,22,1,96
-0.0011242973923786,22,1,97
0.0294894494123569,22,1,98
0.0290459389067028,22,1,99
0.0036560133415376,22,1,100
-0.0037233664468005,22,1,101
-0.0391055103406033,22,1,102
0.0044114502944989,22,1,103
0.014802194502443,22,1,104
0.0470805854674996,22,1,105
0.0337294167280277,22,1,106
0.0105592576923783,22,1,107
0.0040121658006558,22,1,108
-0.0210424618512897,22,1,109
-0.0051003021556147,22,1,110
0.0229342110553261,22,1,111
0.0469723468279917,22,1,112
0.0450767069084405,22,1,113
0.04709634443311,22,1,114
0.0005640177751997,22,1,115
-0.0051038316186061,22,1,116
-0.0010078048063804,22,1,117
0.0187267807561475,22,1,118
0.02828236851197,22,1,119
0.0325979202388258,22,1,120
0.0369293351195859,22,1,121
-0.0029555600252042,22,1,122
-0.006147882189403,22,1,123
0.0120712548718661,22,1,124
0.014191140853176,22,1,125
0.0157994239567123,22,1,126
0.0112031999936295,22,1,127
-0.0029113730840035,22,1,128
-0.0184380074493657,22,1,129
-0.0339290311155477,22,1,130
0.0115393704838106,22,1,131
0.0265624702954871,22,1,132
0.0211988957345938,22,1,133
0.0011482095226908,22,1,134
-0.0339375813104949,22,1,135
-0.0368326127194316,22,1,136
-0.028861441706837,22,1,137
-0.0012313476406375,22,1,138
0.0107154634761645,22,1,139
0.0101796816732007,22,1,140
-0.011111039208757,22,1,141
-0.0299737767099163,22,1,142
-0.0353931002213675,22,1,143
-0.0283132643881648,22,1,144
-0.0158107025229987,22,1,145
-0.0104110614391396,22,1,146
-0.0068264812222466,22,1,147
-0.0040200841664461,22,1,148
-0.0223782712780543,22,1,149
-0.0139348622428703,22,1,150
-0.0210022895368278,22,1,151
-0.0084434447560974,22,1,152
-0.0059114750355972,22,1,153
-0.0043112732796855,22,1,154
0.0009631980807489,22,1,155
-0.0161308177556303,22,1,156
-0.0059233496098361,22,1,157
-0.0168024163943984,22,1,158
-0.0048792632613171,22,1,159
0.0084754121869608,22,1,160
0.0021882682209342,22,1,161
0.0339693403647705,22,1,162
0.0221705494958361,22,1,163
0.0090313192177657,22,1,164
-0.0058270767093243,21,1,0
0.00250778112147,21,1,1
0.0090674769054887,21,1,2
0.0050277981265109,21,1,3
0.0109708725842461,21,1,4
0.0260182685329435,21,1,5
-0.0019118253121772,21,1,6
-0.0118627480527876,21,1,7
0.0048190505596279,21,1,8
0.0060997133679304,21,1,9
0.0300659895889357,21,1,10
0.0400248113476564,21,1,11
0.0400248113476564,21,1,12
-0.0083751570309269,21,1,13
-0.0090914537782344,21,1,14
0.0029475114240465,21,1,15
0.0309618212659258,21,1,16
0.0421687981129361,21,1,17
0.0220825793430735,21,1,18
0.0085513645065803,21,1,19
-0.0090034575783984,21,1,20
-0.0029877551803354,21,1,21
0.0279454915013992,21,1,22
0.0151552732788733,21,1,23
0.0320656581682049,21,1,24
0.0311302011652959,21,1,25
0.0245342304817235,21,1,26
0.0160349943547611,21,1,27
0.0149626232895558,21,1,28
0.0016079869118881,21,1,29
-0.0117466494657797,21,1,30
0.003115969464637,21,1,31
0.0059354001894461,21,1,32
0.015914842070404,21,1,33
0.0330254634022817,21,1,34
0.012563253463268,21,1,35
-0.0067991342002054,21,1,36
-0.0120511880623152,21,1,37
-0.0088911912886149,21,1,38
0.0160912251761783,21,1,39
0.0125751801316539,21,1,40
0.0050116745018719,21,1,41
0.0032041870645976,21,1,42
0.0031161517941514,21,1,43
-0.0008675826812173,21,1,44
0.0010761806650529,21,1,45
0.0030676376613301,21,1,46
-0.0169226858905861,21,1,47
-0.0175376499782981,21,1,48
-0.02385005707247,21,1,49
-0.0158021653515883,21,1,50
0.020850495785276,21,1,51
0.0148827735550281,21,1,52
0.0020399875023318,21,1,53
-0.0396481069587222,21,1,54
-0.0547676620004248,21,1,55
-0.0659026360368708,21,1,56
-0.0334012134483779,21,1,57
0.0079554414437544,21,1,58
0.0282261507140895,21,1,59
0.0101957792507663,21,1,60
-0.0018518273112191,21,1,61
-0.0399204504001266,21,1,62
-0.0166987002995622,21,1,63
-0.0269373738116955,21,1,64
-0.0110277478831068,21,1,65
-0.0070274730299234,21,1,66
-0.0006917595875227,21,1,67
-0.0199139120588141,21,1,68
0.0131312825155098,21,1,69
-0.0005479655923876,21,1,70
-0.0115672968656114,21,1,71
-0.0093991311751415,21,1,72
-0.0118709596357796,21,1,73
-0.0275370347575829,21,1,74
0.0008998496534256,21,1,75
0.0268016646141725,21,1,76
0.0199625891734697,21,1,77
0.0082358792563201,21,1,78
0.0061638953016049,21,1,79
-0.0049958958133313,21,1,80
-0.0268333581755142,21,1,81
0.0114589737607398,21,1,82
0.0244742194572286,21,1,83
0.0295338707772189,21,1,84
0.0252101856085915,21,1,85
0.0169229791077878,21,1,86
0.0200580546147038,21,1,87
-0.0050915435840797,21,1,88
0.0039716939448489,21,1,89
0.0287934602224048,21,1,90
0.029025696467031,21,1,91
0.0312345814605058,21,1,92
0.0538792411465425,21,1,93
0.0284457790307954,21,1,94
0.0146390176210608,21,1,95
0.0131869923954576,21,1,96
0.0099875265782792,21,1,97
0.0450403147970562,21,1,98
0.0348012766258942,21,1,99
0.0401212144835356,21,1,100
-0.0077872241509684,21,1,101
-0.0077872241509684,21,1,102
-0.0018515147463374,21,1,103
0.0050514040160847,21,1,104
0.0056038043380835,21,1,105
0.0099632434647951,21,1,106
0.005355775481551,21,1,107
0.0101396135470327,21,1,108
0.0211307642918642,21,1,109
-0.0093952077131598,21,1,110
-0.0227698651303749,21,1,111
-0.0308733885899839,21,1,112
-0.0183742683159402,21,1,113
-0.0058751480418965,21,1,114
0.0220785777398714,21,1,115
0.0140232037540549,21,1,116
0.0100596856712845,21,1,117
-0.0189865103564563,21,1,118
-0.0308173531216177,21,1,119
-0.0327410563577306,21,1,120
-0.0176740951932718,21,1,121
-0.0028474125504535,21,1,122
2.76843968205403e-07,21,1,123
0.0078273510706768,21,1,124
-0.0218578447110621,21,1,125
-0.0129066911424025,21,1,126
-0.0227937705612936,21,1,127
-0.0189226409876635,21,1,128
-0.0359691845741605,21,1,129
-0.0426800263828816,21,1,130
-0.0359372498897641,21,1,131
-0.0318933611309964,21,1,132
-0.0011080305088355,21,1,133
-0.0098027949547521,21,1,134
-0.0083469504554611,21,1,135
-0.0319054571053599,21,1,136
-0.0598953666219243,21,1,137
-0.0460086374796132,21,1,138
-0.0388646587833462,21,1,139
-0.0079073243411785,21,1,140
-0.0113307594764382,21,1,141
0.0258817191296759,21,1,142
-0.0120349732729189,21,1,143
-0.0109230550230153,21,1,144
-0.0258417224453349,21,1,145
-0.0298898602545027,21,1,146
-0.0221222109931357,21,1,147
-0.0133907386215471,21,1,148
0.038824831780233,21,1,149
0.0260744212131403,21,1,150
0.0060755735133504,21,1,151
-0.0037794149387034,21,1,152
-0.0080431965205358,21,1,153
-0.0034838465396965,21,1,154
0.0032844795993745,21,1,155
0.0090431026272475,21,1,156
0.0267295836623877,21,1,157
0.0199185194440996,21,1,158
0.0070032617335164,21,1,159
0.0132196303508378,21,1,160
0.0165107260626198,21,1,161
0.0161310849257585,21,1,162
0.0249857572173185,21,1,163
-0.0089471095451505,21,1,164
0.0092594496708958,21,1,165
-0.0090673139236544,21,1,166
0.0164827539108152,21,1,167
0.0515914816113591,21,1,168
0.0360933712081865,21,1,169
0.0269297680107868,21,1,170
0.0091152747437894,21,1,171
-0.0210423837100693,21,1,172
-0.0303936683024599,21,1,173
0.0403366987243534,21,1,174
0.0628590440909169,21,1,175
0.0620235880974503,21,1,176
0.053208254614001,21,1,177
-0.0040035047180212,21,1,178
-0.0278178762997875,21,1,179
-0.0305670005658865,21,1,180
-0.0044916840357353,21,1,181
0.0200024358995132,21,1,182
0.034065574194672,21,1,183
0.0141032748887073,21,1,184
2.03369541256767e-05,21,1,185
-0.0109511313631137,21,1,186
-0.0073031376012136,21,1,187
-0.0066989769083222,21,1,188
0.0020841093258489,21,1,189
-0.0018156175293491,21,1,190
-0.0010115231846624,21,1,191
0.0006682016342232,21,1,192
-0.0338904309629802,24,1,0
-0.0543775213026582,24,1,1
0.0297724930052976,24,1,2
-0.0216542218149444,24,1,3
0.0136473909599022,24,1,4
-0.0210319111005686,24,1,5
-0.0413826056497724,24,1,6
-0.0378828047674038,24,1,7
-0.0273799934099391,24,1,8
-0.0137213895223938,24,1,9
0.0295569721317347,24,1,10
0.0239836413142703,24,1,11
-0.0027588903788279,24,1,12
-0.0283464040698664,24,1,13
-0.005151645735068,24,1,14
-0.0255129827947312,24,1,15
0.0098177625999202,24,1,16
0.0146919155231689,24,1,17
0.0250243792707615,24,1,18
0.0101591085315136,24,1,19
0.0062699547286206,24,1,20
0.0097362399862219,24,1,21
0.0092029592899883,24,1,22
0.0235874678053051,24,1,23
0.0149287880077496,24,1,24
-0.0128807999717821,24,1,25
-0.0118656114524683,24,1,26
-0.0054921204886841,24,1,27
0.0084626453602297,24,1,28
0.0566073825189159,24,1,29
0.0265724019795997,24,1,30
0.0099709803576207,24,1,31
-0.0193174959199119,24,1,32
-0.0132917539213318,24,1,33
-0.0073585957771867,24,1,34
0.0056442828955658,24,1,35
0.044645073665832,24,1,36
0.0085142858967358,24,1,37
0.0065925044045497,24,1,38
-0.0073958198952678,24,1,39
-0.016365809707032,24,1,40
-0.000225616731563,24,1,41
0.0156469009202,24,1,42
0.0197138086130586,24,1,43
0.012049983139484,24,1,44
0.0002742446987102,24,1,45
-0.0014034115103752,24,1,46
-0.0075141811918194,24,1,47
0.0237507057503156,24,1,48
-0.0083735380462162,24,1,49
0.0137510574681421,24,1,50
-0.0032996939303314,24,1,51
-0.0027847522765187,24,1,52
0.0027446761870902,24,1,53
0.0106399274558383,24,1,54
0.0047222135573922,24,1,55
0.0068702345547865,24,1,56
0.0031071925141988,24,1,57
0.0011630446624009,24,1,58
-0.0072250364852205,24,1,59
-0.013113756948805,24,1,60
-0.0232984230483711,24,1,61
0.0006557983651024,24,1,62
0.0335203203816944,24,1,63
0.0223134270949767,24,1,64
-0.0175990248713067,24,1,65
-0.0540818910778987,24,1,66
-0.0533556331345018,24,1,67
-0.0584143542007107,24,1,68
0.0195506349072527,24,1,69
0.0326043140938353,24,1,70
0.033635144489478,24,1,71
-0.0078478135215534,24,1,72
-0.0363277643814229,24,1,73
-0.0521924153721262,24,1,74
-0.0650072636588892,24,1,75
-0.0174396810207858,24,1,76
0.0135509701337441,24,1,77
0.0175731189500189,24,1,78
0.0026928001068339,24,1,79
-0.0174170232126073,24,1,80
-0.0392530200536059,24,1,81
-0.0195580340716699,24,1,82
0.00198130950409,24,1,83
0.0018882997816882,24,1,84
-0.019595158240848,24,1,85
-0.0240611235328596,24,1,86
-0.046578562381659,24,1,87
-0.0005738296678297,24,1,88
0.0165144254219762,24,1,89
0.0187172696256546,24,1,90
0.0005999889543161,24,1,91
-0.0084404622304097,24,1,92
-0.0481264926804052,24,1,93
-0.0392460955675471,24,1,94
-0.0174392099332853,24,1,95
0.0135413020866122,24,1,96
0.0436010844292704,24,1,97
0.0521596384974502,24,1,98
0.0565703189988465,24,1,99
-0.0223576720586853,24,1,100
-0.0212764265844404,24,1,101
-0.0743177389308035,24,1,102
0.0101032808753822,24,1,103
0.0516080937045344,24,1,104
0.0696436483380266,24,1,105
0.0565408437699502,24,1,106
0.0224619773681134,24,1,107
-0.0084107086316267,24,1,108
-0.0203260360983802,24,1,109
0.0012589622814561,24,1,110
0.0317126456595069,24,1,111
0.0534665203208974,24,1,112
0.0435420911453414,24,1,113
0.0555853444592821,24,1,114
-0.0195576700495105,24,1,115
-0.0023440875543223,24,1,116
0.0081548654183511,24,1,117
0.0277053522295553,24,1,118
0.0416902999386163,24,1,119
0.0277718053262483,24,1,120
-0.0022179452489836,24,1,121
0.0016508478000946,24,1,122
0.0321353996006465,24,1,123
0.0481378537033349,24,1,124
0.0415864407127625,24,1,125
0.0290609619698146,24,1,126
-0.0324313831417932,24,1,127
-0.0321939753305073,24,1,128
-0.0311904154982377,24,1,129
-0.0001812111706047,24,1,130
0.0295946887503846,24,1,131
0.0314908855180679,24,1,132
0.0555856656553052,24,1,133
-0.0122398873171763,24,1,134
-0.0331447441141058,24,1,135
-0.0518188354321349,24,1,136
-0.0183541834808545,24,1,137
0.0067145206617445,24,1,138
0.0085215315788177,24,1,139
0.0259136035471014,24,1,140
-0.0062920986239241,24,1,141
-0.0219463969131124,24,1,142
-0.025857376582247,24,1,143
-0.0216579588377643,24,1,144
-0.0109809981860299,24,1,145
-0.0083142449793323,24,1,146
-0.013333487298111,24,1,147
-0.0147987444922452,24,1,148
-0.0144174799022738,24,1,149
-0.0095067452529903,24,1,150
0.0024633886383818,24,1,151
-0.0222250870613225,24,1,152
-0.0261057135657643,24,1,153
-0.0264685142250016,24,1,154
0.0285206568386192,24,1,155
0.0607926193887238,24,1,156
0.0106399488689065,24,1,157
-0.0170199228319945,24,1,158
-0.0563705778643978,24,1,159
-0.0337459282021524,24,1,160
-0.0111729404894812,24,1,161
0.046889793859271,24,1,162
0.0237651971144794,24,1,163
0.0227059028171622,24,1,164
-0.005299385901709,23,1,0
-0.0187026069577071,23,1,1
-0.0371681719209549,23,1,2
-0.03478680851131,23,1,3
-0.0383789148782269,23,1,4
-0.0054700836594835,23,1,5
0.0175511035338866,23,1,6
0.0647107590876674,23,1,7
0.0400679612414307,23,1,8
0.0051700918420681,23,1,9
-0.0242689704629763,23,1,10
-0.0370611395284926,23,1,11
-0.0434083106070169,23,1,12
-0.0071145418497288,23,1,13
0.0390087948208404,23,1,14
0.0569856345402903,23,1,15
0.0574114117565611,23,1,16
0.0513338257973269,23,1,17
-0.0101732176289346,23,1,18
-0.0437234540028526,23,1,19
-0.0591039768854023,23,1,20
0.0021887590957462,23,1,21
0.0530153510977378,23,1,22
0.0659700943031501,23,1,23
0.0575632030256071,23,1,24
0.038720114085304,23,1,25
0.0234392351380954,23,1,26
-0.0173211377131544,23,1,27
-0.0197026081881404,23,1,28
-0.0158028075316177,23,1,29
-0.0135287655908559,23,1,30
0.0445454582599971,23,1,31
0.0570076927825591,23,1,32
0.0441937759642631,23,1,33
0.0172212974693416,23,1,34
-0.0188654808805581,23,1,35
-0.0228096656849709,23,1,36
-0.014343577699351,23,1,37
-0.0073219819315496,23,1,38
-0.0020109334285269,23,1,39
0.0115365405479184,23,1,40
0.0254246391694572,23,1,41
0.0230470591988647,23,1,42
0.0137959876492714,23,1,43
-0.0192100138530172,23,1,44
-0.0387014110214855,23,1,45
-0.0271800131408822,23,1,46
-0.0242761519058536,23,1,47
0.0047517316124249,23,1,48
0.0216470796073455,23,1,49
0.0265948456570962,23,1,50
0.0255432895424296,23,1,51
0.0066625589292153,23,1,52
-0.0305944544378295,23,1,53
-0.0586111898326652,23,1,54
-0.0517632829781671,23,1,55
-0.0382606713535504,23,1,56
0.0056443257217022,23,1,57
0.0327167301119476,23,1,58
0.0231357846685085,23,1,59
-0.0028625235707668,23,1,60
-0.0388529025075767,23,1,61
-0.0562076825284787,23,1,62
-0.0581409535227656,23,1,63
-0.0452303696280272,23,1,64
-0.0002554773956871,23,1,65
0.0186138600742332,23,1,66
0.0271170436995249,23,1,67
0.0026037213215647,23,1,68
-0.0194023630047645,23,1,69
-0.039230736974121,23,1,70
-0.0482303304931907,23,1,71
-0.0401789798961731,23,1,72
0.0076403199063001,23,1,73
0.0350941923106649,23,1,74
0.0281169699842195,23,1,75
0.005500090624227,23,1,76
0.0049069101787616,23,1,77
-0.0344308716890229,23,1,78
-0.0147805446347677,23,1,79
-0.0123511635296576,23,1,80
-0.0018183630296596,23,1,81
0.0037815482199792,23,1,82
0.0190693587696846,23,1,83
0.0416605463398333,23,1,84
0.0446082671025809,23,1,85
0.030686877693491,23,1,86
0.0031959845951932,23,1,87
-0.0193507760009289,23,1,88
-0.0182249750742482,23,1,89
-0.0412751235828777,23,1,90
0.0047071012142504,23,1,91
0.0778657038092567,23,1,92
0.0819912942965553,23,1,93
0.0492265268707414,23,1,94
0.0217354196417616,23,1,95
-0.022209792707101,23,1,96
-0.0183582452897937,23,1,97
-0.001544591213117,23,1,98
0.0341535162667178,23,1,99
0.0485600294916329,23,1,100
0.0490119802917821,23,1,101
0.0285355122249425,23,1,102
0.0285355122249425,23,1,103
0.0217134898779021,23,1,104
-0.0231394182168455,23,1,105
-0.0132843904673748,23,1,106
0.0020738921618263,23,1,107
0.010721385830332,23,1,108
0.0445937329122808,23,1,109
0.0425642552225179,23,1,110
0.0190471506359384,23,1,111
-0.00687724469388,23,1,112
-0.0302573598650661,23,1,113
-0.0357348480092141,23,1,114
-0.0072475336953875,23,1,115
-0.0072475336953875,23,1,116
-0.0044404358956082,23,1,117
0.0180955311231298,23,1,118
0.0096662604072949,23,1,119
0.0057368346303985,23,1,120
0.0026481911217276,23,1,121
-0.0217245404128666,23,1,122
-0.0372013235235627,23,1,123
-0.0432379554583338,23,1,124
-0.0192801968560921,23,1,125
0.0051295660789692,23,1,126
0.0226691926127181,23,1,127
0.0096108364317364,23,1,128
-0.0072031816670997,23,1,129
-0.0072031816670997,23,1,130
-0.0591592830890857,23,1,131
-0.0547409072311752,23,1,132
-0.030372012668304,23,1,133
-0.0132547011077965,23,1,134
0.0235098785221367,23,1,135
0.0176102574158272,23,1,136
-0.0167136122049067,23,1,137
-0.0547038008849693,23,1,138
-0.0643924746455874,23,1,139
-0.0413194970242337,23,1,140
-0.0072846186285252,23,1,141
-0.0032626197037278,23,1,142
-0.0195799210093931,23,1,143
-0.0182321779301937,23,1,144
-0.013417532204511,23,1,145
-0.0212320745561526,23,1,146
-0.0212320745561526,23,1,147
-0.0297759980752253,23,1,148
-0.0352752660917553,23,1,149
-0.012388012919045,23,1,150
0.0105663785685409,23,1,151
0.0304906915700208,23,1,152
0.0172692830452044,23,1,153
-0.0157028066905552,23,1,154
-0.0337089717474239,23,1,155
-0.0045959998971727,23,1,156
0.0256835484832385,23,1,157
0.041579023726135,23,1,158
0.041579023726135,23,1,159
0.0436528748572539,23,1,160
0.0045739166509778,23,1,161
-0.0161951761884622,23,1,162
-0.0124104565965415,23,1,163
-0.0058774790071969,23,1,164
0.0006554985821475,23,1,165
0.0346051886969803,23,1,166
0.0501043726590365,23,1,167
0.0441602710460299,23,1,168
0.0125587284990297,23,1,169
0.002548083215324,23,1,170
-0.0134473714555668,23,1,171
0.0027590390728448,23,1,172
0.0117289111127339,23,1,173
0.0137139082957997,23,1,174
0.0200914289489208,23,1,175
0.0284687700518287,23,1,176
0.0311018827454459,23,1,177
0.0366976251208045,23,1,178
0.023261391647142,23,1,179
0.0042773585478474,23,1,180
-0.0134620555373445,23,1,181
-0.0089030674229996,23,1,182
-0.0058550995689051,23,1,183
0.0041598172067579,26,1,0
-0.0073723747979869,26,1,1
-0.0277163948760094,26,1,2
-0.057292209842415,26,1,3
-0.0568249833709998,26,1,4
-0.0442189934226802,26,1,5
-0.0284193071297993,26,1,6
0.0208138194631247,26,1,7
0.0155337863914065,26,1,8
-0.0073245037221619,26,1,9
-0.032693789974913,26,1,10
-0.0350503456519847,26,1,11
-0.0088359135359318,26,1,12
0.0161038112688205,26,1,13
0.0206589384805424,26,1,14
-0.0091771393981126,26,1,15
-0.0113645334272737,26,1,16
0.0064720469407816,26,1,17
0.0243413803710485,26,1,18
0.0625310831386795,26,1,19
0.0458264116911179,26,1,20
-0.0131069190675293,26,1,21
-0.0397894940377223,26,1,22
-0.0322640929696523,26,1,23
-0.0311973286875494,26,1,24
0.0664606368793263,26,1,25
0.0759673269060873,26,1,26
0.0350619363954522,26,1,27
-0.0237018698580459,26,1,28
-0.0441861386925223,26,1,29
-0.0363044389750419,26,1,30
-0.0262494691147965,26,1,31
0.0385321784889882,26,1,32
0.0477229327490152,26,1,33
0.0336581465367484,26,1,34
-0.0027473377997395,26,1,35
-0.0224342753239166,26,1,36
-0.032559279190881,26,1,37
0.0056340703368435,26,1,38
0.0112808452543294,26,1,39
0.0067921052892328,26,1,40
0.0097626841494201,26,1,41
0.0045568402248766,26,1,42
0.0166298942414655,26,1,43
0.0278206005253143,26,1,44
0.011666713359836,26,1,45
0.0128214856310405,26,1,46
